#     FILENAME=Skynet_59519_moon_63319_12123.A.cal.txt
#     BASENAME=Skynet_59519_moon_63319_12123
#      CONTROL=SKYNET
#     PROJCODE=Skynet_59519_moon_63319
#     DATAROOT=/raid/scratch/cyborg/SkynetData
#      DATADIR=/raid/scratch/cyborg
#     DATADIR2=/raid/scratch/cyborg/SkynetData/Skynet_59519_moon_63319/Cyborg
#     SCANNAME=2019_06_26_10
#     SRC_NAME=moon
#     OBSERVER=reichart_2118
#     DATE_OBS=2021-11-01T14:34:13.150
#        OBSID=63319
#      SCANNUM=12123
#          MJD=59519.6070966
#          UTC=52453
#     SCANTYPE=daisy
#     DATAMODE=LOWRES
#     RECEIVER=Rx1_2
#      OBSFREQ=1395.0000
#    LO1Tuning=7000.0000
#     RFFILTER=1355_1435
#        OBSBW=-500.0000
#     EFFBANDW=80.0000
#        NCHAN=1024
#    STARTCHAN=747
#     STOPCHAN=911
#         TINT=0.3020
#         TBIN=0.00419430
#       ACCLEN=2048 
#     DURATION=142.38
#     EXPOSURE=121.40
#        FOCUS=37.071
#       RA,DEC=12:00:04.72, 06:01:43.33
#      RA(deg)=177.04002
#     DEC(deg)=6.02199
#   WIDTH(deg)=6.0566x6.0870
#    AZIM(deg)=184.6486
#    ELEV(deg)=57.2078
#     COORDREF=RA_DEC_
#         HREF=0.0000
#         VREF=0.0000
#      RADESYS=FK5
#       OFFSYS=RADEC
#      EQUINOX=2000.00
#     IFATTENS=20.00, 4.00
#   BALANCELEV=1.200 
#   POWER_XLYR=[1.62, 2.77] 
#       VELDEF=RADI-OBS 
#     VELOCITY=0.000 
#         NPOL=2 
#      POLMODE=Linear 
#      POLTYPE=XXYY 
#      WARNING=None 
#     NOISECAL=HI 
#       PRECAL=3 
#      POSTCAL=3 
#     CRYOTEMP=19 
#      BOXTEMP=26 
#         TSYS=YY1:44.50, XX1:36.34
#         TCAL=YY1:9.92, XX1:9.15
# Calibrated Continuum 
#                
#UTC_Time(s)    Ra(hr)  Dec(deg)   Az(deg)   El(deg)        YY1        XX1 Cal   Sweeps 
52453.150000  12.00046    6.0286  178.6206   57.3396    47.9825    39.2754  -1    0  0 
52453.250663  11.99875    6.0284  178.6682   57.3398    45.9385    37.4054  -1    0  0 
52453.351326  12.00058    6.0216  178.6203   57.3325    46.0141    37.4016  -1    0  0 
52453.451990  12.00029    6.0187  178.6297   57.3297    45.9179    37.4522  -1    0  0 
52453.552653  12.00115    6.0280  178.6037   57.3389    45.9622    37.4067  -1    0  0 
52453.653316  12.00123    6.0291  178.6017   57.3399    45.9060    37.4543  -1    0  0 
52453.753979  12.00131    6.0301  178.5997   57.3409    45.9199    37.4181  -1    0  0 
52453.854643  12.00139    6.0312  178.5977   57.3420    45.9724    37.4301  -1    0  0 
52453.955306  12.00061    6.0284  178.6270   57.3394    45.9686    37.4551  -1    0  0 
52454.055969  12.00101    6.0270  178.6117   57.3379    45.9410    37.5004  -1    0  0 
52454.156633  12.00104    6.0268  178.6111   57.3377    45.9125    37.5166  -1    0  0 
52454.257296  12.00107    6.0266  178.6105   57.3375    45.9210    37.4582  -1    0  0 
52454.357959  12.00114    6.0278  178.6134   57.3387    45.9088    37.4675  -1    0  0 
52454.458623  12.00118    6.0280  178.6138   57.3389    45.9415    37.3901  -1    0  0 
52454.559286  12.00110    6.0258  178.6145   57.3367    45.9063    37.4802  -1    0  0 
52454.659949  12.00110    6.0252  178.6150   57.3361    45.9207    37.4847  -1    0  0 
52454.760613  12.00110    6.0272  178.6152   57.3381    45.8581    37.5161  -1    0  0 
52454.861276  12.00110    6.0275  178.6155   57.3384    45.8876    37.4736  -1    0  0 
52454.961939  12.00123    6.0268  178.6125   57.3377    45.8556    37.5101  -1    0  0 
52455.062602  12.00128    6.0267  178.6114   57.3376    45.8029    37.4965  -1    0  0 
52455.163266  12.00120    6.0269  178.6160   57.3378    45.8341    37.4805  -1    0  0 
52455.263929  12.00120    6.0269  178.6172   57.3378    45.8502    37.4772  -1    0  0 
52455.364592  12.00135    6.0294  178.6131   57.3403    45.8539    37.4770  -1    0  0 
52455.465256  12.00142    6.0306  178.6116   57.3415    45.8109    37.4756  -1    0  0 
52455.565919  12.00130    6.0285  178.6162   57.3394    45.8275    37.4439  -1    0  0 
52455.666582  12.00130    6.0284  178.6171   57.3393    45.8122    37.4465  -1    0  0 
52455.767246  12.00155    6.0291  178.6110   57.3400    45.8288    37.4103  -1    0  0 
52455.867909  12.00166    6.0294  178.6087   57.3403    45.8491    37.4009  -1    0  0 
52455.968572  12.00178    6.0297  178.6065   57.3406    45.8291    37.4295  -1    0  0 
52456.069235  12.00150    6.0284  178.6148   57.3393    45.8199    37.4092  -1    0  0 
52456.169899  12.00158    6.0278  178.6123   57.3387    45.7859    37.3959  -1    0  0 
52456.270562  12.00163    6.0274  178.6115   57.3382    45.8524    37.3695  -1    0  0 
52456.371225  12.00167    6.0270  178.6107   57.3378    45.8055    37.3937  -1    0  0 
52456.471889  12.00174    6.0292  178.6134   57.3402    45.7761    37.3774  -1    0  0 
52456.572552  12.00184    6.0274  178.6101   57.3383    45.8086    37.3948  -1    0  0 
52456.673215  12.00193    6.0266  178.6084   57.3374    45.7856    37.3583  -1    0  0 
52456.773879  12.00201    6.0257  178.6068   57.3366    45.8334    37.3495  -1    0  0 
52456.874542  12.00180    6.0276  178.6121   57.3385    45.7810    37.3755  -1    0  0 
52456.975205  12.00188    6.0278  178.6112   57.3387    45.8078    37.3511  -1    0  0 
52457.075869  12.00194    6.0279  178.6106   57.3388    45.7573    37.3340  -1    0  0 
52457.176532  12.00199    6.0280  178.6101   57.3389    45.8283    37.3418  -1    0  0 
52457.277195  12.00190    6.0278  178.6110   57.3387    45.7733    37.3648   0    0  0 
52457.377858  12.00190    6.0278  178.6110   57.3387    45.7785    37.3324   0    0  0 
52457.478522  12.00190    6.0278  178.6110   57.3387    45.7328    37.3572   0    0  0 
52457.579185  12.00210    6.0268  178.6090   57.3377    45.7420    37.3525   0    0  0 
52457.679848  12.00216    6.0265  178.6084   57.3374    45.8112    37.3384   0    0  0 
52457.780512  12.00213    6.0289  178.6100   57.3398    45.7309    37.3506   0    0  0 
52457.881175  12.00216    6.0293  178.6100   57.3401    45.7769    37.3503   0    0  0 
52457.981838  12.00225    6.0269  178.6100   57.3378    45.7042    37.3195   0    0  0 
52458.082502  12.00230    6.0264  178.6100   57.3372    45.7580    37.3966   0    0  0 
52458.183165  12.00220    6.0281  178.6100   57.3390    45.8282    37.4454   0    0  0 
52458.283828  12.00220    6.0283  178.6100   57.3392    45.7011    37.3860   0    0  0 
52458.384491  12.00220    6.0286  178.6100   57.3395    45.7308    37.3242   0    0  0 
52458.485155  12.00247    6.0275  178.6100   57.3384    45.7446    37.3535   0    0  0 
52458.585818  12.00243    6.0276  178.6100   57.3384    45.7794    37.3116   0    0  0 
52458.686481  12.00247    6.0275  178.6100   57.3384    45.7522    37.3317   0    0  0 
52458.787145  12.00251    6.0274  178.6100   57.3383    45.7343    37.3498   0    0  0 
52458.887808  12.00255    6.0276  178.6085   57.3385    45.7625    37.3328   0    0  0 
52458.988471  12.00259    6.0276  178.6081   57.3385    45.7370    37.3094   0    0  0 
52459.089135  12.00263    6.0276  178.6077   57.3385    45.7614    37.3425   0    0  0 
52459.189798  12.00250    6.0289  178.6122   57.3398    45.7694    37.3999   0    0  0 
52459.290461  12.00266    6.0282  178.6084   57.3391    45.7495    37.3669   0    0  0 
52459.391125  12.00270    6.0282  178.6080   57.3391    45.7311    37.3322   0    0  0 
52459.491788  12.00275    6.0283  178.6075   57.3391    45.6857    37.2916   0    0  0 
52459.592451  12.00260    6.0272  178.6090   57.3381    45.7093    37.2565   0    0  0 
52459.693114  12.00283    6.0286  178.6090   57.3394    45.6607    37.2290   0    0  0 
52459.793778  12.00291    6.0289  178.6090   57.3397    45.6724    37.3026   0    0  0 
52459.894441  12.00299    6.0292  178.6090   57.3401    45.6392    37.2783   0    0  0 
52459.995104  12.00285    6.0277  178.6090   57.3386    45.7230    37.2671   0    0  0 
52460.095768  12.00289    6.0276  178.6090   57.3385    45.6717    37.2713   0    0  0 
52460.196431  12.00280    6.0284  178.6090   57.3393    45.6228    37.2800   0    0  0 
52460.297094  12.00280    6.0286  178.6090   57.3394    45.6736    37.2759   0    0  0 
52460.397757  12.00295    6.0277  178.6090   57.3385    45.6506    37.2180   0    0  0 
52460.498420  12.00299    6.0275  178.6090   57.3384    45.6621    37.2242   0    0  0 
52460.599084  12.00290    6.0276  178.6090   57.3384    45.7357    37.2516   0    0  0 
52460.699747  12.00290    6.0275  178.6090   57.3384    45.7650    37.2421   0    0  0 
52460.800410  12.00306    6.0279  178.6090   57.3388    45.6662    37.2281   0    0  0 
52460.901073  12.00311    6.0280  178.6090   57.3389    45.6515    37.1801   0    0  0 
52461.001737  12.00300    6.0275  178.6090   57.3384    45.6733    37.2126   0    0  0 
52461.102400  12.00300    6.0274  178.6090   57.3383    45.7168    37.1788   0    0  0 
52461.203063  12.00300    6.0273  178.6090   57.3381    45.6457    37.2226   0    0  0 
52461.303727  12.00317    6.0280  178.6090   57.3388    45.6246    37.2447   0    0  0 
52461.404390  12.00321    6.0280  178.6090   57.3389    45.6522    37.1934   0    0  0 
52461.505053  12.00325    6.0281  178.6090   57.3390    45.6649    37.1853   0    0  0 
52461.605717  12.00329    6.0278  178.6090   57.3387    45.6799    37.1915   0    0  0 
52461.706380  12.00333    6.0273  178.6090   57.3382    45.6559    37.2490   0    0  0 
52461.807043  12.00337    6.0272  178.6090   57.3380    45.6980    37.2276   0    0  0 
52461.907707  12.00341    6.0270  178.6090   57.3379    45.6880    37.2690   0    0  0 
52462.008370  12.00330    6.0282  178.6090   57.3391    45.6481    37.1981   0    0  0 
52462.109033  12.00346    6.0272  178.6090   57.3381    45.6600    37.2219   0    0  0 
52462.209696  12.00351    6.0270  178.6090   57.3379    45.6784    37.2435   0    0  0 
52462.310360  12.00356    6.0268  178.6090   57.3376    45.6161    37.2045   0    0  0 
52462.411023  12.00356    6.0281  178.6074   57.3390    45.5981    37.1812   0    0  0 
52462.511686  12.00360    6.0282  178.6070   57.3391    45.5935    37.1827   0    0  0 
52462.612350  12.00350    6.0264  178.6108   57.3373    45.5879    37.1428   0    0  0 
52462.713013  12.00350    6.0260  178.6116   57.3369    45.6091    37.1408   0    0  0 
52462.813676  12.00367    6.0279  178.6073   57.3387    45.5863    37.1524   0    0  0 
52462.914340  12.00371    6.0280  178.6069   57.3388    45.6158    37.1773   0    0  0 
52463.015003  12.00360    6.0273  178.6095   57.3382    45.6245    37.1525   0    0  0 
52463.115666  12.00360    6.0272  178.6099   57.3381    45.6147    37.1593   0    0  0 
52463.216329  12.00360    6.0272  178.6103   57.3380    45.6303    37.1006   0    0  0 
52463.316993  12.00370    6.0274  178.6090   57.3382    45.5881    37.1415   0    0  0 
52463.618983  12.00380    6.0275  178.6090   57.3384    45.5534    37.1508   0    0  0 
52463.920973  12.00391    6.0274  178.6090   57.3383    45.5409    37.1684   0    0  0 
52464.222963  12.00400    6.0274  178.6090   57.3383    45.4772    37.1193   0    0  1 
52464.524952  12.00400    6.0274  178.6090   57.3383    45.4923    37.1334   0    0  1 
52464.826942  12.00410    6.0276  178.6090   57.3385    45.4810    37.0763   0    0  1 
52465.128932  12.00420    6.0275  178.6090   57.3383    45.4107    37.1153   0    0  1 
52465.430922  12.00432    6.0277  178.6090   57.3385    45.4111    37.0910   0    0  1 
52465.732912  12.00442    6.0276  178.6090   57.3385    45.4378    37.0897   0    0  1 
52466.034902  11.99886    6.1223  178.7605   57.4343    45.4873    36.9792   0    0  1 
52466.336892  11.98732    6.2167  179.0834   57.5304    45.4300    37.0843   0    0  1 
52466.638882  11.98167    6.2459  179.2453   57.5598    45.4510    37.0631   0    0  1 
52466.940872  11.97445    6.2971  179.4493   57.6118    45.4240    37.1458   0    0  1 
52467.242862  11.95996    6.2912  179.8544   57.6051    45.5000    37.1340   0    0  1 
52467.544852  11.95154    6.3229  180.0939   57.6361    45.4596    37.1474   0    0  1 
52467.846841  11.93648    6.3093  180.5160   57.6205    45.4309    37.0739   0    0  1 
52468.148831  11.92348    6.3116  180.8828   57.6193    45.4149    36.9691   0    0  1 
52468.450821  11.90557    6.2987  181.3835   57.5997    45.4286    37.0710   0    0  1 
52468.752811  11.89256    6.2837  181.7483   57.5796    45.8342    37.1497   0    0  1 
52469.054800  11.86823    6.2500  182.4238   57.5338    46.0891    37.4697   0    0  1 
52469.356790  11.85215    6.2105  182.8725   57.4834    52.0305    42.7802   0    0  1 
52469.658780  11.83415    6.1407  183.3680   57.3999    79.3439    64.2911   0    0  1 
52469.960770  11.81505    6.0781  183.8922   57.3209   118.8306    94.5611   0    0  1 
52470.262760  11.79767    5.9942  184.3647   57.2210   124.4691    98.8768   0    0  1 
52470.564750  11.77873    5.9203  184.8778   57.1271    88.3048    71.3382   0    0  1 
52470.866740  11.76033    5.8424  185.3765   57.0302    55.8801    45.7919   0    0  1 
52471.168730  11.74318    5.7399  185.8332   56.9047    46.5241    37.7473   0    0  1 
52471.470720  11.72752    5.6521  186.2473   56.7959    45.9015    37.1129   0    0  1 
52471.772710  11.70832    5.5303  186.7516   56.6474    45.6515    37.0221   0    0  1 
52472.074700  11.69569    5.4322  187.0747   56.5298    45.5161    36.8999   0    0  1 
52472.376690  11.68223    5.3258  187.4194   56.4026    45.4003    36.8505   0    0  1 
52472.678679  11.66634    5.2004  187.8261   56.2516    45.4357    36.8645   0    0  1 
52472.980669  11.66298    5.1560  187.9035   56.2016    45.4228    36.8723   0    0  1 
52473.282659  11.64855    5.0046  188.2625   56.0252    45.3433    36.8133   0    0  1 
52473.584649  11.63845    4.8976  188.5084   55.9006    45.2837    36.7639   0    0  1 
52473.886639  11.63374    4.7979  188.6143   55.7926    45.2476    36.6784   0    0  1 
52474.188629  11.62931    4.7220  188.7145   55.7087    45.2465    36.7342   0    0  1 
52474.490619  11.62553    4.6408  188.7995   55.6207    45.2297    36.7030   0    0  1 
52474.792609  11.62520    4.5845  188.7986   55.5639    45.2144    36.7340   0    0  1 
52475.094599  11.62271    4.5144  188.8492   55.4896    45.2470    36.6887   0    0  1 
52475.396589  11.62638    4.4917  188.7515   55.4737    45.2360    36.6553   0    0  1 
52475.698578  11.62957    4.4610  188.6599   55.4492    45.2163    36.6757   0    0  1 
52476.000568  11.63383    4.4537  188.5516   55.4496    45.2480    36.6274   0    0  1 
52476.302558  11.64085    4.4506  188.3681   55.4592    45.2898    36.6398   0    0  1 
52476.604548  11.64841    4.4843  188.1793   55.5060    45.3649    36.6748   0    0  1 
52476.906538  11.65790    4.5304  187.9414   55.5683    45.4371    36.6976   0    0  1 
52477.208528  11.66684    4.5885  187.7181   55.6413    45.4935    36.7738   0    0  1 
52477.510517  11.68000    4.6790  187.3901   55.7527    45.4830    36.7707   0    0  1 
52477.812507  11.69259    4.7651  187.0766   55.8588    45.4466    36.7824   0    0  1 
52478.114497  11.70416    4.8922  186.7944   56.0023    45.3816    36.7560   0    0  1 
52478.416487  11.71778    5.0048  186.4478   56.1348    45.5143    36.8323   0    0  1 
52478.718477  11.73168    5.1720  186.1096   56.3203    45.8595    37.0411   0    0  1 
52479.020467  11.73470    5.2092  186.0359   56.3611    45.9999    37.1547   0    0  1 
52479.322457  11.75990    5.4942  185.3991   56.6776    50.9342    40.9205   0    0  1 
52479.624447  11.77114    5.6412  185.1224   56.8373    76.3281    60.7598   0    0  1 
52479.926437  11.78764    5.8701  184.7013   57.0843   115.3241    91.4630   0    0  1 
52480.228427  11.79896    6.0178  184.4097   57.2436   125.2897    99.0967   0    0  1 
52480.530417  11.81418    6.2670  184.0190   57.5064    91.3049    72.3083   0    0  1 
52480.832406  11.82770    6.4705  183.6717   57.7226    57.0377    45.7465   0    0  1 
52481.134396  11.83757    6.6586  183.4160   57.9184    46.5479    37.9603   0    0  1 
52481.436386  11.84945    6.8800  183.1066   58.1488    45.8542    37.4517   0    0  1 
52481.738376  11.85788    7.0521  182.8825   58.3264    45.5595    37.2164   0    0  1 
52482.040366  11.87227    7.3356  182.5022   58.6195    45.3428    37.0516   0    0  1 
52482.342356  11.87915    7.5030  182.3191   58.7909    45.4199    37.0827   0    0  1 
52482.644346  11.88789    7.7205  182.0853   59.0133    45.4789    37.1757   0    0  1 
52482.946336  11.89407    7.8930  181.9192   59.1891    45.5369    37.1372   0    0  1 
52483.248325  11.89792    8.0400  181.8180   59.3380    45.4743    37.1198   0    0  1 
52483.550315  11.90190    8.1946  181.7127   59.4945    45.4361    37.0680   0    0  1 
52483.852305  11.90327    8.2588  181.6787   59.5594    45.3992    37.0304   0    0  1 
52484.154295  11.90689    8.4509  181.5870   59.7532    45.3237    36.9809   0    0  1 
52484.456285  11.90690    8.5156  181.5934   59.8179    45.3798    37.0005   0    0  1 
52484.758275  11.90567    8.5836  181.6355   59.8854    45.3743    37.0434   0    0  1 
52485.060265  11.90474    8.6386  181.6682   59.9400    45.4021    37.0250   0    0  1 
52485.362255  11.90017    8.6453  181.8103   59.9446    45.3608    37.0368   0    0  1 
52485.664244  11.89665    8.6473  181.9160   59.9449    45.3466    37.0320   0    0  1 
52485.966234  11.89461    8.6429  181.9739   59.9395    45.4164    37.0231   0    0  1 
52486.268224  11.88690    8.5726  182.2032   59.8650    45.3642    37.0823   0    0  1 
52486.570214  11.88160    8.5015  182.3598   59.7907    45.4406    37.0625   0    0  1 
52486.872204  11.87486    8.4017  182.5522   59.6868    45.4030    37.0726   0    0  1 
52487.174194  11.86747    8.2652  182.7595   59.5455    45.4144    37.0152   0    0  1 
52487.476184  11.86085    8.1284  182.9446   59.4040    45.3548    36.9761   0    0  1 
52487.778174  11.85451    7.9813  183.1143   59.2523    45.2784    36.9223   0    0  1 
52488.080164  11.84443    7.7294  183.3897   58.9925    45.2818    36.8765   0    0  1 
52488.382154  11.83767    7.5412  183.5615   58.7990    45.3236    36.9767   0    0  1 
52488.684144  11.83090    7.3412  183.7376   58.5933    45.4553    37.2899   0    0  1 
52488.986133  11.82322    7.0490  183.9233   58.2940    45.8662    37.4825   0    0  1 
52489.288123  11.81627    6.8073  184.0949   58.0462    52.7365    42.0194   0    0  1 
52489.590113  11.81041    6.5367  184.2282   57.7700    81.1179    63.5742   0    0  1 
52489.892103  11.80412    6.2772  184.3761   57.5047   119.2720    94.0833   0    0  1 
52490.194093  11.79975    6.0032  184.4622   57.2263   123.6757    97.7664   0    0  1 
52490.496083  11.79475    5.7394  184.5672   56.9576    87.5213    68.6333   0    0  1 
52490.798073  11.79060    5.4234  184.6425   56.6375    55.4750    43.9365   0    0  1 
52491.100062  11.78699    5.1942  184.7104   56.4048    46.0404    37.4038   0    0  1 
52491.402052  11.78485    4.9172  184.7366   56.1256    45.2054    36.8718   0    0  1 
52491.704042  11.78322    4.6562  184.7492   55.8631    45.0692    36.5300   0    0  1 
52492.006032  11.78199    4.4125  184.7527   55.6184    44.9380    36.4208   0    0  1 
52492.308022  11.78073    4.1669  184.7569   55.3716    44.9090    36.3920   0    0  1 
52492.610012  11.78064    3.9651  184.7365   55.1699    44.9740    36.3897   0    0  1 
52492.912002  11.78100    3.7198  184.6938   54.9254    44.9430    36.3782   0    0  1 
52493.213992  11.78210    3.5846  184.6526   54.7913    44.8799    36.3756   0    0  1 
52493.515982  11.78463    3.4138  184.5705   54.6232    44.8312    36.2615   0    0  1 
52493.817971  11.78743    3.2746  184.4814   54.4870    44.7187    36.2249   0    0  1 
52494.119961  11.78998    3.1729  184.4074   54.3879    44.7155    36.2165   0    0  1 
52494.421951  11.79252    3.0519  184.3301   54.2695    44.6615    36.1974   0    0  1 
52494.723941  11.79525    2.9946  184.2535   54.2149    44.6918    36.2346   0    0  1 
52495.025931  11.79916    2.9863  184.1554   54.2103    44.6411    36.1653   0    0  1 
52495.327921  11.80286    3.0053  184.0685   54.2325    44.6648    36.1704   0    0  1 
52495.629911  11.80541    3.0054  184.0009   54.2351    44.6662    36.2364   0    0  1 
52495.931901  11.80902    3.0932  183.9220   54.3260    44.6649    36.1972   0    0  1 
52496.233891  11.81169    3.1828  183.8660   54.4178    44.6673    36.2571   0    0  1 
52496.535881  11.81430    3.2733  183.8074   54.5106    44.7179    36.2984   0    0  1 
52496.837871  11.81638    3.4117  183.7749   54.6505    44.7633    36.3349   0    0  1 
52497.139861  11.81848    3.5424  183.7328   54.7830    44.8522    36.4220   0    0  1 
52497.441850  11.81922    3.7625  183.7376   55.0035    44.8343    36.4132   0    0  1 
52497.743840  11.82000    3.9091  183.7341   55.1507    44.8146    36.4551   0    0  1 
52498.045830  11.82107    4.1592  183.7355   55.4015    44.7881    36.4323   0    0  1 
52498.347820  11.82021    4.4061  183.7855   55.6474    44.8830    36.4906   0    0  1 
52498.649809  11.81869    4.6647  183.8554   55.9045    45.1233    36.7737   0    0  1 
52498.951799  11.81681    4.9295  183.9333   56.1676    45.3611    37.0015   0    0  1 
52499.253789  11.81386    5.2198  184.0511   56.4548    50.3597    40.3496   0    0  1 
52499.555779  11.81145    5.4461  184.1427   56.6786    74.5810    58.5871   0    0  1 
52499.857769  11.80651    5.7683  184.3204   56.9957   112.6108    88.8429   0    0  1 
52500.159759  11.80380    5.9703  184.4246   57.1946   126.6876   100.1803   0    0  1 
52500.461749  11.79680    6.3110  184.6626   57.5278    96.9637    76.2065   0    0  1 
52500.763739  11.79072    6.5765  184.8717   57.7862    60.5604    47.9081   0    0  1 
52501.065729  11.78556    6.7964  185.0481   58.0001    46.7957    37.8932   0    0  1 
52501.367719  11.77788    7.0846  185.3133   58.2786    45.3876    37.1532   0    0  1 
52501.669709  11.77067    7.3268  185.5526   58.5118    45.2910    36.9952   0    0  1 
52501.971698  11.76742    7.4265  185.6724   58.6068    45.1834    36.8095   0    0  1 
52502.273688  11.75629    7.7506  186.0436   58.9156    45.1276    36.7581   0    0  1 
52502.575678  11.74853    7.9726  186.3068   59.1268    45.2281    36.7825   0    0  1 
52502.877668  11.74151    8.1078  186.5391   59.2513    45.2731    36.8137   0    0  1 
52503.179658  11.73404    8.2697  186.7925   59.4014    45.2225    36.7949   0    0  1 
52503.481648  11.72827    8.3738  186.9833   59.4963    45.1980    36.7062   0    0  1 
52503.783638  11.72160    8.4803  187.2052   59.5918    45.1639    36.7107   0    0  1 
52504.085628  11.71546    8.5580  187.4031   59.6593    45.1095    36.7581   0    0  1 
52504.387618  11.71075    8.6082  187.5556   59.7015    45.0922    36.7320   0    0  1 
52504.689608  11.70453    8.6525  187.7478   59.7351    45.0946    36.8015   0    0  1 
52504.991598  11.70080    8.6584  187.8630   59.7344    45.1638    36.7006   0    0  1 
52505.293588  11.69821    8.6360  187.9366   59.7075    45.1476    36.7574   0    0  1 
52505.595577  11.69482    8.5889  188.0264   59.6548    45.1602    36.7593   0    0  1 
52505.897567  11.69529    8.5252  188.0005   59.5920    45.1943    36.7338   0    0  1 
52506.199557  11.69524    8.4254  187.9790   59.4927    45.2116    36.7962   0    0  1 
52506.501547  11.69560    8.3218  187.9489   59.3900    45.2800    36.7881   0    0  1 
52506.803536  11.69838    8.2152  187.8466   59.2885    45.3030    36.8289   0    0  1 
52507.105526  11.70298    8.0070  187.6690   59.0891    45.3647    36.9152   0    0  1 
52507.407516  11.70726    7.8165  187.5046   58.9066    45.3402    36.9057   0    0  1 
52507.709506  11.71357    7.6900  187.3035   58.7904    45.2674    36.7903   0    0  1 
52508.011496  11.72043    7.4523  187.0598   58.5645    45.2006    36.7387   0    0  1 
52508.313486  11.72929    7.2795  186.7769   58.4056    45.3411    36.6936   0    0  1 
52508.615476  11.73374    7.1214  186.6221   58.2546    45.6384    36.9085   0    0  1 
52508.917466  11.74668    6.8900  186.2161   58.0425    45.7279    37.0067   0    0  1 
52509.219456  11.75844    6.6758  185.8531   57.8443    47.3580    38.4157   0    0  1 
52509.521446  11.77003    6.4701  185.5009   57.6532    63.7249    51.5590   0    0  1 
52509.823436  11.78402    6.2816  185.0840   57.4817   102.9957    82.1164   0    0  1 
52510.125426  11.79459    6.0828  184.7662   57.2950   128.0210   101.4162   0    0  1 
52510.427415  11.80912    5.8380  184.3370   57.0658   104.8434    83.1632   0    0  1 
52510.729405  11.82427    5.6656  183.9058   56.9069    66.1380    53.2144   0    0  1 
52511.031395  11.83606    5.4963  183.5681   56.7480    47.5051    38.6867   0    0  1 
52511.333385  11.85399    5.2933  183.0578   56.5595    45.2646    36.7494   0    0  1 
52511.635375  11.86606    5.1401  182.7217   56.4142    45.1260    36.6859   0    0  1 
52511.937365  11.87830    5.0284  182.3872   56.3098    44.7117    36.5155   0    0  1 
52512.239355  11.89370    4.8947  181.9662   56.1841    44.6664    36.4481   0    0  1 
52512.541345  11.90431    4.7733  181.6711   56.0679    44.6997    36.5710   0    0  1 
52512.843335  11.91740    4.6830  181.3207   55.9830    44.7340    36.6177   0    0  1 
52513.145325  11.93037    4.5853  180.9710   55.8893    44.7329    36.5429   0    0  1 
52513.447315  11.94038    4.5311  180.7062   55.8375    44.6121    36.4485   0    0  1 
52513.749304  11.95154    4.4873  180.4101   55.7963    44.5106    36.3542   0    0  1 
52514.051294  11.95786    4.4557  180.2407   55.7657    44.4733    36.2944   0    0  1 
52514.353284  11.96428    4.4553  180.0713   55.7661    44.4406    36.2473   0    0  1 
52514.655274  11.97015    4.4592  179.9174   55.7704    44.4459    36.2208   0    0  1 
52514.957263  11.97426    4.4740  179.8124   55.7855    44.4134    36.2168   0    0  1 
52515.259253  11.97649    4.5121  179.7548   55.8238    44.4528    36.2206   0    0  1 
52515.561243  11.97687    4.5765  179.7461   55.8883    44.4252    36.2387   0    0  1 
52515.863233  11.97658    4.6152  179.7578   55.9270    44.4153    36.2851   0    0  1 
52516.165223  11.97559    4.7217  179.7887   56.0336    44.4100    36.2032   0    0  1 
52516.467213  11.96748    4.8146  180.0075   56.1260    44.4666    36.2416   0    0  1 
52516.769203  11.96279    4.9040  180.1372   56.2150    44.5354    36.2884   0    0  1 
52517.071193  11.95456    5.0045  180.3654   56.3143    44.5497    36.3580   0    0  1 
52517.373183  11.94722    5.1035  180.5681   56.4123    44.5543    36.3603   0    0  1 
52517.675173  11.93673    5.2038  180.8535   56.5102    44.5625    36.3893   0    0  1 
52517.977163  11.92210    5.3202  181.2608   56.6217    44.5044    36.3761   0    0  1 
52518.279153  11.90664    5.4253  181.6888   56.7211    44.5939    36.4297   0    0  1 
52518.581142  11.89390    5.5435  182.0488   56.8326    44.8483    36.4900   0    0  1 
52518.883132  11.88422    5.5974  182.3189   56.8814    45.0343    36.5977   0    0  1 
52519.185122  11.85994    5.7804  182.9987   57.0502    46.4390    38.0529   0    0  1 
52519.487112  11.84873    5.8184  183.3170   57.0782    58.8046    48.4494   0    0  1 
52519.789102  11.82206    5.9513  184.0651   57.1894    96.0138    77.1138   0    0  1 
52520.091092  11.80710    6.0104  184.4907   57.2325   127.0219   100.4652   0    0  1 
52520.393082  11.79148    6.0800  184.9321   57.2852   112.0805    89.4408   0    0  1 
52520.695072  11.77049    6.1456  185.5240   57.3265    69.9259    57.2990   0    0  1 
52520.997062  11.75311    6.1919  186.0135   57.3498    49.0166    40.4546   0    0  1 
52521.299052  11.73784    6.2339  186.4467   57.3709    45.2295    36.6149   0    0  1 
52521.601041  11.71766    6.2665  187.0093   57.3734    45.0739    36.3811   0    0  1 
52521.903031  11.70289    6.2889  187.4265   57.3723    44.8929    36.2936   0    0  1 
52522.205021  11.68496    6.3150  187.9279   57.3686    44.7685    36.3816   0    0  1 
52522.507011  11.66684    6.3163  188.4276   57.3374    44.8205    36.2845   0    0  1 
52522.809001  11.65141    6.3079  188.8545   57.3005    44.8648    36.3427   0    0  1 
52523.110991  11.64081    6.2841  189.1393   57.2557    44.8426    36.3374   0    0  1 
52523.412980  11.62915    6.2527  189.4556   57.2012    44.7563    36.2573   0    0  1 
52523.714970  11.61737    6.2363  189.7710   57.1611    44.7211    36.2455   0    0  1 
52524.016960  11.61038    6.1901  189.9567   57.0996    44.7427    36.2221   0    0  1 
52524.318950  11.60628    6.1450  190.0572   57.0459    44.7012    36.1831   0    0  1 
52524.620940  11.60055    6.1195  190.2092   57.0082    44.7142    36.1969   0    0  1 
52524.922930  11.59966    6.0631  190.2192   56.9501    44.6871    36.1865   0    0  1 
52525.224920  11.59884    6.0162  190.2302   56.9018    44.7166    36.1857   0    0  1 
52525.526910  11.59845    5.9712  190.2290   56.8563    44.7318    36.2307   0    0  1 
52525.828900  11.60323    5.9238  190.0918   56.8193    44.7124    36.1386   0    0  1 
52526.130890  11.60503    5.8698  190.0297   56.7696    44.7558    36.1384   0    0  1 
52526.432880  11.61359    5.8369  189.7934   56.7548    44.6763    36.1486   0    0  1 
52526.734869  11.62110    5.7939  189.5812   56.7279    44.7161    36.1832   0    0  1 
52527.036859  11.63314    5.7618  189.2510   56.7199    44.7020    36.2039   0    0  1 
52527.338849  11.64512    5.7547  188.9270   56.7365    44.7441    36.2272   0    0  1 
52527.640839  11.65593    5.7312  188.6313   56.7332    44.7850    36.2815   0    0  1 
52527.942829  11.66889    5.7327  188.2827   56.7582    44.7667    36.2829   0    0  1 
52528.244819  11.68434    5.7454  187.8689   56.7978    44.8250    36.2866   0    0  1 
52528.546809  11.70119    5.7579  187.4146   56.8378    44.9586    36.3127   0    0  1 
52528.848799  11.71763    5.7699  186.9722   56.8771    45.1810    36.3675   0    0  1 
52529.150788  11.73288    5.8242  186.5703   56.9531    46.4186    37.7507   0    0  1 
52529.452778  11.75236    5.8635  186.0457   57.0182    57.7715    47.4317   0    0  1 
52529.754768  11.77079    5.9176  185.5505   57.0961    95.8985    77.0062   0    0  1 
52530.056758  11.79071    5.9885  185.0169   57.1905   126.2035   100.0933   0    0  1 
52530.358748  11.80977    6.0644  184.5034   57.2865   109.2684    86.9720   0    0  1 
52530.660738  11.82754    6.1433  184.0232   57.3823    70.1663    57.0870   0    0  1 
52530.962728  11.84609    6.2394  183.5206   57.4948    47.8958    39.2403   0    0  1 
52531.264718  11.86398    6.3429  183.0362   57.6116    45.3319    36.8255   0    0  1 
52531.566707  11.87980    6.4364  182.6016   57.7163    45.1592    36.6823   0    0  1 
52531.868697  11.89702    6.5688  182.1370   57.8591    44.7264    36.4640   0    0  1 
52532.170687  11.91168    6.6737  181.7308   57.9709    44.6515    36.4247   0    0  1 
52532.472677  11.92445    6.7841  181.3780   58.0862    44.7221    36.4298   0    0  1 
52532.774667  11.93187    6.8442  181.1741   58.1492    44.7568    36.4455   0    0  1 
52533.076657  11.94944    6.9992  180.6865   58.3099    44.8162    36.5116   0    0  1 
52533.378647  11.95620    7.0826  180.4965   58.3948    44.7691    36.4206   0    0  1 
52533.680637  11.96324    7.1768  180.3004   58.4901    44.6871    36.4170   0    0  1 
52533.982627  11.97152    7.2740  180.0693   58.5892    44.7284    36.3467   0    0  1 
52534.284617  11.97406    7.3514  179.9977   58.6663    44.6972    36.3718   0    0  1 
52534.586607  11.97710    7.4201  179.9168   58.7353    44.6794    36.4293   0    0  1 
52534.888596  11.97751    7.4798  179.9045   58.7950    44.6668    36.4186   0    0  1 
52535.190586  11.97604    7.5306  179.9503   58.8458    44.6851    36.4111   0    0  1 
52535.492576  11.97563    7.5716  179.9687   58.8868    44.7038    36.4659   0    0  1 
52535.794566  11.97054    7.5773  180.1151   58.8919    44.7628    36.4461   0    0  1 
52536.096556  11.96460    7.5873  180.2889   58.9012    44.7990    36.4640   0    0  1 
52536.398546  11.95906    7.5983  180.4508   58.9114    44.8245    36.4493   0    0  1 
52536.700535  11.94932    7.5479  180.7334   58.8587    44.9588    36.4180   0    0  1 
52537.002525  11.93964    7.5061  181.0119   58.8141    44.9269    36.5604   0    0  1 
52537.304515  11.93085    7.4374  181.2689   58.7423    44.9511    36.6399   0    0  1 
52537.606505  11.91832    7.3373  181.6245   58.6370    44.9598    36.6632   0    0  1 
52537.908495  11.90689    7.2501  181.9509   58.5454    44.8046    36.5871   0    0  1 
52538.210485  11.89757    7.1722  182.2100   58.4622    44.8221    36.5089   0    0  1 
52538.512475  11.87967    7.0071  182.7118   58.2861    45.0350    36.6687   0    0  1 
52538.814465  11.86703    6.8530  183.0587   58.1230    45.4200    36.9156   0    0  1 
52539.116455  11.85527    6.7337  183.3796   57.9946    46.0019    37.3173   0    0  1 
52539.418445  11.83739    6.5153  183.8620   57.7611    56.8950    45.6793   0    0  1 
52539.720434  11.82313    6.3293  184.2376   57.5617    91.7745    72.6577   0    0  1 
52540.022424  11.80947    6.1200  184.5918   57.3386   125.3546    99.0720   0    0  1 
52540.324414  11.79659    5.9438  184.9247   57.1490   112.2620    88.8617   0    0  1 
52540.626404  11.78381    5.7390  185.2495   56.9301    71.9343    56.9463   0    0  1 
52540.928394  11.76943    5.4978  185.6072   56.6714    49.0169    39.3852   0    0  1 
52541.230384  11.75722    5.2830  185.9084   56.4415    45.0729    36.5913   0    0  1 
52541.532374  11.74607    5.0650  186.1724   56.2089    44.9495    36.4947   0    0  1 
52541.834364  11.74007    4.9415  186.3151   56.0775    44.6910    36.2361   0    0  1 
52542.136354  11.72406    4.6244  186.6939   55.7386    44.5512    36.1287   0    0  1 
52542.438344  11.71852    4.4697  186.8119   55.5759    44.5900    36.0727   0    0  1 
52542.740334  11.71217    4.2814  186.9453   55.3789    44.5809    36.0511   0    0  1 
52543.042324  11.70612    4.1084  187.0789   55.1969    44.5180    36.0130   0    0  1 
52543.344313  11.70263    3.9635  187.1415   55.0473    44.4579    35.9508   0    0  1 
52543.646303  11.69761    3.8148  187.2486   54.8911    44.4279    35.9906   0    0  1 
52543.948293  11.69677    3.6896  187.2508   54.7648    44.3661    35.9952   0    0  1 
52544.250283  11.69536    3.5852  187.2697   54.6586    44.3372    36.0019   0    0  1 
52544.552272  11.69499    3.4966  187.2638   54.5697    44.3671    35.9210   0    0  1 
52544.854262  11.69664    3.4430  187.2145   54.5188    44.3517    35.9049   0    0  1 
52545.156252  11.69748    3.3749  187.1829   54.4522    44.4136    35.9831   0    0  1 
52545.458242  11.70201    3.3842  187.0672   54.4686    44.3702    35.8921   0    0  1 
52545.760232  11.70624    3.3816  186.9639   54.4721    44.3815    35.9346   0    0  1 
52546.062222  11.71158    3.4384  186.8362   54.5367    44.4246    35.8847   0    0  1 
52546.364212  11.71727    3.5152  186.7092   54.6213    44.4506    35.8954   0    0  1 
52546.666202  11.72180    3.5549  186.5976   54.6676    44.4665    35.9401   0    0  1 
52546.968192  11.72891    3.6860  186.4364   54.8084    44.4837    35.8836   0    0  1 
52547.270182  11.73617    3.8274  186.2735   54.9594    44.4673    35.9531   0    0  1 
52547.572172  11.74345    3.9729  186.1101   55.1143    44.4141    35.9563   0    0  1 
52547.874161  11.75209    4.1740  185.9223   55.3261    44.3933    35.9614   0    0  1 
52548.176151  11.75844    4.3609  185.7828   55.5206    44.4330    36.0591   0    0  1 
52548.478141  11.76548    4.5616  185.6286   55.7297    44.6055    36.1807   0    0  1 
52548.780131  11.77325    4.8195  185.4617   55.9966    44.7687    36.4490   0    0  1 
52549.082121  11.78107    5.0856  185.2937   56.2714    46.1279    37.2282   0    0  1 
52549.384111  11.78713    5.3337  185.1681   56.5260    59.0004    46.2902   0    0  1 
52549.686101  11.79380    5.5967  185.0272   56.7962    94.5562    73.8598   0    0  1 
52549.988091  11.79938    5.8819  184.9129   57.0871   125.7853    99.1163   0    0  1 
52550.290081  11.80422    6.1685  184.8250   57.3784   115.1027    90.3958   0    0  1 
52550.592071  11.80843    6.4370  184.7437   57.6511    77.3844    60.3187   0    0  1 
52550.894061  11.81292    6.7093  184.6573   57.9278    51.5450    40.9268   0    0  1 
52551.196051  11.81547    6.9560  184.6236   58.1767    45.2820    36.9266   0    0  1 
52551.498040  11.81902    7.2159  184.5626   58.4399    44.8716    36.7051   0    0  1 
52551.800030  11.81922    7.4574  184.5881   58.6813    44.8010    36.5139   0    0  1 
52552.102020  11.82083    7.6980  184.5766   58.9233    44.7661    36.4297   0    0  1 
52552.404010  11.82079    7.9436  184.6176   59.1683    44.8172    36.4372   0    0  1 
52552.705999  11.82043    8.1642  184.6581   59.3883    44.8501    36.5300   0    0  1 
52553.007989  11.81991    8.3319  184.6989   59.5552    44.8625    36.5547   0    0  1 
52553.309979  11.81802    8.5149  184.7848   59.7358    44.7607    36.5908   0    0  1 
52553.611969  11.81603    8.6735  184.8692   59.8920    44.8081    36.5388   0    0  1 
52553.913959  11.81416    8.8397  184.9512   60.0558    44.8066    36.5818   0    0  1 
52554.215949  11.81023    8.9243  185.0811   60.1359    44.8095    36.5877   0    0  1 
52554.517939  11.80802    8.9926  185.1653   60.2012    44.8436    36.5218   0    0  1 
52554.819929  11.80567    9.0162  185.2376   60.2221    44.8078    36.5977   0    0  1 
52555.121919  11.80105    9.0733  185.3889   60.2735    44.8162    36.5672   0    0  1 
52555.423909  11.79856    9.0387  185.4612   60.2358    44.8117    36.5511   0    0  1 
52555.725899  11.79519    8.9858  185.5544   60.1788    44.7762    36.5540   0    0  1 
52556.027889  11.79267    8.9498  185.6288   60.1395    44.8124    36.5418   0    0  1 
52556.329878  11.78940    8.8297  185.7065   60.0155    44.8600    36.5629   0    0  1 
52556.631868  11.78714    8.7647  185.7644   59.9477    44.8396    36.5907   0    0  1 
52556.933858  11.78485    8.5936  185.8011   59.7741    44.8627    36.5266   0    0  1 
52557.235848  11.78309    8.4151  185.8282   59.5935    44.8388    36.5796   0    0  1 
52557.537838  11.78174    8.2463  185.8402   59.4232    44.8301    36.5067   0    0  1 
52557.839828  11.78127    8.0034  185.8116   59.1804    44.8389    36.4926   0    0  1 
52558.141818  11.78116    7.7866  185.7811   58.9637    44.7712    36.5036   0    0  1 
52558.443808  11.78254    7.5861  185.7145   58.7652    44.8901    36.5621   0    0  1 
52558.745798  11.78362    7.2897  185.6348   58.4708    44.9485    36.7777   0    0  1 
52559.047788  11.78632    7.0236  185.5182   58.2085    45.6831    37.1056   0    0  1 
52559.349778  11.78892    6.7030  185.3948   57.8917    55.3003    43.8492   0    0  1 
52559.651767  11.79125    6.4976  185.3013   57.6894    86.1564    67.6441   0    0  1 
52559.953757  11.79627    6.2382  185.1271   57.4362   122.7460    97.0178   0    0  1 
52560.255747  11.80162    5.9467  184.9403   57.1511   119.6754    94.4540   0    0  1 
52560.557737  11.80606    5.6862  184.7860   56.8957    82.0496    64.4043   0    0  1 
52560.859726  11.81273    5.4352  184.5712   56.6521    52.2835    41.7309   0    0  1 
52561.161716  11.81964    5.1403  184.3509   56.3643    45.3014    36.8741   0    0  1 
52561.463706  11.82569    4.9004  184.1621   56.1304    44.7894    36.5227   0    0  1 
52561.765696  11.83387    4.6524  183.9163   55.8902    44.4973    36.1972   0    0  1 
52562.067686  11.84061    4.4113  183.7124   55.6552    44.3305    36.0611   0    0  1 
52562.369676  11.84830    4.2280  183.4958   55.4782    44.2164    36.0321   0    0  1 
52562.671666  11.85630    4.0329  183.2689   55.2894    44.3354    36.0504   0    0  1 
52562.973656  11.86325    3.8825  183.0750   55.1439    44.3563    36.0185   0    0  1 
52563.275646  11.87038    3.7213  182.8751   54.9881    44.3082    36.0622   0    0  1 
52563.577636  11.87701    3.6093  182.6976   54.8804    44.2572    36.0500   0    0  1 
52563.879626  11.88373    3.5033  182.5158   54.7784    44.2248    36.0039   0    0  1 
52564.181616  11.88895    3.4597  182.3791   54.7379    44.2208    36.0312   0    0  1 
52564.483605  11.89401    3.4114  182.2470   54.6924    44.2229    35.9841   0    0  1 
52564.785595  11.89812    3.4082  182.1412   54.6914    44.1937    35.9885   0    0  1 
52565.087585  11.90205    3.3891  182.0395   54.6744    44.1775    36.0089   0    0  1 
52565.389575  11.90395    3.4173  181.9960   54.7035    44.1311    36.0131   0    0  1 
52565.691565  11.90622    3.4824  181.9434   54.7697    44.1407    36.0802   0    0  1 
52565.993555  11.90740    3.5526  181.9174   54.8406    44.1775    36.0819   0    0  1 
52566.295545  11.90669    3.6576  181.9446   54.9452    44.2095    36.1391   0    0  1 
52566.597535  11.90646    3.7498  181.9587   55.0373    44.2781    36.1810   0    0  1 
52566.899525  11.90223    3.9176  182.0823   55.2030    44.3851    36.2696   0    0  1 
52567.201514  11.90038    4.0304  182.1408   55.3148    44.5224    36.3599   0    0  1 
52567.503504  11.89381    4.2199  182.3282   55.5007    44.5151    36.2798   0    0  1 
52567.805494  11.88625    4.4293  182.5457   55.7057    44.4351    36.2420   0    0  1 
52568.107484  11.88077    4.5735  182.7031   55.8465    44.4244    36.1833   0    0  1 
52568.409474  11.86912    4.8066  183.0398   56.0717    44.5301    36.2302   0    0  1 
52568.711464  11.86180    5.0138  183.2577   56.2730    44.9037    36.4431   0    0  1 
52569.013454  11.85314    5.1942  183.5088   56.4466    45.1332    36.6391   0    0  1 
52569.315443  11.83691    5.4523  183.9801   56.6908    50.2244    40.7499   0    0  1 
52569.617433  11.82687    5.6521  184.2823   56.8805    75.6375    60.7701   0    0  1 
52569.919423  11.81593    5.8435  184.6080   57.0605   113.6479    90.1431   0    0  1 
52570.221413  11.80031    6.0619  185.0698   57.2614   124.0883    98.1690   0    0  1 
52570.523403  11.78825    6.2443  185.4325   57.4294    91.2612    72.9019   0    0  1 
52570.825393  11.77363    6.4445  185.8737   57.6103    57.0234    46.1473   0    0  1 
52571.127383  11.75995    6.6374  186.2866   57.7856    45.9804    37.2981   0    0  1 
52571.429373  11.74148    6.8083  186.8340   57.9296    45.2749    36.6475   0    0  1 
52571.731363  11.73427    6.9081  187.0616   58.0164    45.0285    36.4846   0    0  1 
52572.033353  11.71657    7.1022  187.6024   58.1816    44.7443    36.3124   0    0  1 
52572.335343  11.70466    7.1916  187.9594   58.2498    44.6995    36.2895   0    0  1 
52572.637332  11.69212    7.2974  188.3391   58.3329    44.6726    36.4024   0    0  1 
52572.939322  11.68032    7.3790  188.6944   58.3923    44.6960    36.3608   0    0  1 
52573.241312  11.66924    7.4543  189.0283   58.4456    44.6710    36.3052   0    0  1 
52573.543302  11.65874    7.5225  189.3458   58.4924    44.6793    36.2873   0    0  1 
52573.845292  11.64896    7.5515  189.6312   58.5010    44.6838    36.2400   0    0  1 
52574.147282  11.64008    7.5969  189.8958   58.5276    44.5975    36.3084   0    0  1 
52574.449272  11.63345    7.6025  190.0855   58.5190    44.6689    36.2036   0    0  1 
52574.751262  11.62738    7.5893  190.2577   58.4923    44.6584    36.2518   0    0  1 
52575.053251  11.62689    7.5425  190.2608   58.4445    44.6759    36.1954   0    0  1 
52575.355241  11.62371    7.5173  190.3461   58.4124    44.6363    36.2204   0    0  1 
52575.657231  11.62274    7.4644  190.3593   58.3577    44.5927    36.2154   0    0  1 
52575.959221  11.62673    7.3831  190.2284   58.2856    44.5701    36.2313   0    0  1 
52576.261211  11.63098    7.3007  190.0871   58.2131    44.5981    36.2315   0    0  1 
52576.563201  11.63410    7.2251  189.9798   58.1449    44.5648    36.2580   0    0  1 
52576.865191  11.64141    7.1134  189.7512   58.0491    44.6108    36.2441   0    0  1 
52577.167181  11.64859    7.0532  189.5330   58.0045    44.7022    36.2730   0    0  1 
52577.469170  11.65919    6.9167  189.2069   57.8899    44.6397    36.2555   0    0  1 
52577.771160  11.67075    6.7906  188.8576   57.7871    44.6305    36.1885   0    0  1 
52578.073150  11.68466    6.6746  188.4469   57.6974    44.6240    36.1928   0    0  1 
52578.375140  11.69792    6.5573  188.0536   57.6055    44.6841    36.1685   0    0  1 
52578.677130  11.71211    6.4842  187.6441   57.5573    44.9617    36.2497   0    0  1 
52578.979120  11.72908    6.3652  187.1541   57.4652    45.0951    36.4504   0    0  1 
52579.281110  11.74469    6.2634  186.7087   57.3870    49.1535    40.4425   0    0  1 
52579.583100  11.76197    6.1864  186.2160   57.3351    72.3109    59.2428   0    0  1 
52579.885090  11.78223    6.0912  185.6456   57.2665   112.1160    89.5817   0    0  1 
52580.187080  11.79595    6.0251  185.2631   57.2171   125.7797    99.5925   0    0  1 
52580.489070  11.81565    5.9314  184.7068   57.1466    94.3939    75.9131   0    0  1 
52580.791059  11.83022    5.8991  184.3047   57.1275    57.4219    47.3440   0    0  1 
52581.093049  11.85981    5.8344  183.4853   57.0907    45.6008    37.3491   0    0  1 
52581.395039  11.87610    5.7542  183.0285   57.0234    44.8098    36.3391   0    0  1 
52581.697029  11.88811    5.7649  182.7086   57.0417    44.5512    36.2616   0    0  1 
52581.999019  11.90589    5.7480  182.2165   57.0344    44.3155    36.2269   0    0  1 
52582.301009  11.92182    5.7309  181.7803   57.0256    44.2966    36.1460   0    0  1 
52582.602998  11.93608    5.7323  181.3924   57.0326    44.2845    36.2098   0    0  1 
52582.904988  11.95052    5.7355  180.9963   57.0410    44.3181    36.2253   0    0  1 
52583.206978  11.96493    5.7532  180.6042   57.0623    44.3174    36.1711   0    0  1 
52583.508968  11.97574    5.7896  180.3088   57.1008    44.3378    36.1554   0    0  1 
52583.810958  11.98668    5.8226  180.0101   57.1359    44.3091    36.1452   0    0  1 
52584.112948  11.99245    5.8526  179.8539   57.1661    44.2330    36.1578   0    0  1 
52584.414938  11.99711    5.9006  179.7251   57.2142    44.2770    36.1451   0    0  1 
52584.716928  11.99987    5.9394  179.6537   57.2531    44.3194    36.1356   0    0  1 
52585.018918  12.00446    5.9996  179.5271   57.3134    44.2993    36.1371   0    0  1 
52585.320908  12.00362    6.0402  179.5566   57.3541    44.2729    36.1482   0    0  1 
52585.622897  12.00413    6.0918  179.5434   57.4057    44.2949    36.1174   0    0  0 
52585.924887  12.00410    6.1140  179.5449   57.4280    44.2863    36.1630   0    0  0 
52586.226877  12.00426    6.1421  179.5418   57.4561    44.3524    36.1677   0    0  0 
52586.528867  12.00211    5.9686  179.6038   57.2824    44.2627    36.1715   0    0  0 
52586.830857  12.00139    5.9205  179.6252   57.2342    44.3131    36.1038   0    0  0 
52586.969269  12.00106    5.8985  179.6351   57.2122    44.2452    36.2000   0    0  0 
52587.069932  12.00083    5.8824  179.6422   57.1961    44.3092    36.1934   0    0  0 
52587.170596  12.00059    5.8664  179.6494   57.1801    44.2879    36.1197  -1    0  0 
52587.271259  12.00035    5.8504  179.6565   57.1640    53.0366    44.1360   1    0  0 
52587.371922  12.00011    5.8343  179.6637   57.1480    54.5751    45.6034   1    0  0 
52587.472586  12.00310    6.0573  179.5845   57.3712    54.5954    45.6675   1    0  0 
52587.573249  12.00310    6.0590  179.5853   57.3728    54.5755    45.6687   1    0  0 
52587.673912  12.00299    6.0413  179.5902   57.3552    54.5935    45.6136   1    0  0 
52587.774576  12.00298    6.0414  179.5913   57.3553    54.5882    45.6349   1    0  0 
52587.875239  12.00300    6.0419  179.5912   57.3558    54.6395    45.6695   1    0  0 
52587.975902  12.00300    6.0421  179.5919   57.3560    54.6584    45.7043   1    0  0 
52588.076566  12.00311    6.0414  179.5887   57.3552    54.6553    45.7660   1    0  0 
52588.177229  12.00316    6.0412  179.5877   57.3550    51.6720    42.9269   1    0  0 
52588.277892  12.00321    6.0410  179.5867   57.3548    51.6727    42.8739   1    0  0 
52588.378555  12.00310    6.0400  179.5925   57.3539    54.6068    45.7337   1    0  0 
52588.479219  12.00310    6.0415  179.5922   57.3553    54.5779    45.7064   1    0  0 
52588.579882  12.00310    6.0418  179.5927   57.3557    54.6018    45.7215   1    0  0 
52588.680545  12.00310    6.0422  179.5932   57.3560    54.5429    45.6435   1    0  0 
52588.781209  12.00327    6.0377  179.5903   57.3516    54.6237    45.6577   1    0  0 
52588.881872  12.00320    6.0403  179.5929   57.3542    54.6369    45.6969   1    0  0 
52588.982535  12.00320    6.0408  179.5936   57.3547    54.6559    45.6713   1    0  0 
52589.083199  12.00320    6.0413  179.5944   57.3551    54.6218    45.6976   1    0  0 
52589.183862  12.00348    6.0401  179.5902   57.3540    54.6428    45.6243   1    0  0 
52589.284525  12.00340    6.0424  179.5925   57.3563    54.6870    45.6574   1    0  0 
52589.385188  12.00340    6.0436  179.5934   57.3574    54.6075    45.6701   1    0  0 
52589.485852  12.00340    6.0447  179.5942   57.3586    54.6182    45.6690   1    0  0 
52589.586515  12.00357    6.0380  179.5887   57.3518    54.6312    45.6604   1    0  0 
52589.687178  12.00350    6.0418  179.5927   57.3556    54.6409    45.6441   1    0  0 
52589.787842  12.00350    6.0427  179.5939   57.3566    54.6440    45.6977   1    0  0 
52589.888505  12.00350    6.0437  179.5950   57.3575    54.6862    45.6716   1    0  0 
52589.989168  12.00371    6.0401  179.5879   57.3540    54.6425    45.6838   1    0  0 
52590.089831  12.00360    6.0399  179.5915   57.3537    54.6438    45.7038   1    0  0 
52590.190494  12.00360    6.0396  179.5921   57.3535    54.5886    45.6696   1    0  0 
52590.291158  12.00360    6.0393  179.5926   57.3532    54.5942    45.6156   1    0  0 
52590.391821  12.00377    6.0406  179.5893   57.3545    54.6299    45.6627   1    0  0 
52590.492484  12.00370    6.0391  179.5915   57.3530    54.6399    45.6884   1    0  0 
52590.593147  12.00370    6.0386  179.5920   57.3525    54.6583    45.6499   1    0  0 
52590.693811  12.00370    6.0381  179.5926   57.3520    54.5723    45.6736   1    0  0 
52590.794474  12.00390    6.0409  179.5890   57.3548    54.5734    45.6172   1    0  0 
52590.895137  12.00396    6.0413  179.5884   57.3552    54.5101    45.6729   1    0  0 
52590.995801  12.00401    6.0417  179.5879   57.3556    54.5838    45.6269   1    0  0 
52591.096464  12.00380    6.0408  179.5926   57.3546    54.5467    45.6375   1    0  0 
52591.197127  12.00380    6.0409  179.5931   57.3547    54.5746    45.6536   1    0  0 
52591.297791  12.00400    6.0408  179.5890   57.3547    54.6187    45.7460   0    0  0 
52591.398454  12.00404    6.0409  179.5886   57.3548    44.3068    36.1480   0    0  0 
52591.499117  12.00414    6.0409  179.5924   57.3547    44.3319    36.1500   0    0  0 
52591.599781  12.00419    6.0409  179.5929   57.3548    44.2596    36.0890   0    0  0 
52591.700444  12.00400    6.0413  179.5884   57.3551    44.3098    36.1388   0    0  0 
52591.801107  12.00400    6.0414  179.5878   57.3552    44.3268    36.1630   0    0  0 
52591.901770  12.00400    6.0404  179.5952   57.3543    44.3272    36.1335   0    0  0 
52592.002434  12.00400    6.0403  179.5962   57.3542    44.2956    36.1193   0    0  0 
52592.103097  12.00420    6.0411  179.5900   57.3550    44.2849    36.1384   0    0  0 
52592.203760  12.00424    6.0412  179.5896   57.3551    44.3145    36.1235   0    0  0 
52592.304424  12.00433    6.0393  179.5910   57.3532    44.3174    36.1894   0    0  0 
52592.405087  12.00438    6.0390  179.5910   57.3529    44.3113    36.1539   0    0  0 
52592.505750  12.00420    6.0410  179.5910   57.3549    44.3407    36.1672   0    0  0 
52592.606414  12.00420    6.0412  179.5910   57.3550    44.3005    36.1527   0    0  0 
52592.707077  12.00442    6.0398  179.5910   57.3536    44.2763    36.1326   0    0  0 
52592.807740  12.00447    6.0395  179.5910   57.3534    44.3453    36.1044   0    0  0 
52592.908403  12.00430    6.0402  179.5910   57.3541    44.3099    36.1182   0    0  0 
52593.009067  12.00430    6.0402  179.5910   57.3541    44.3011    36.0950   0    0  0 
52593.109730  12.00450    6.0410  179.5910   57.3549    44.2957    36.1316   0    0  0 
52593.210393  12.00454    6.0412  179.5910   57.3551    44.3329    36.1202   0    0  0 
52593.311057  12.00463    6.0409  179.5910   57.3547    44.2869    36.1370   0    0  0 
52593.411720  12.00468    6.0409  179.5910   57.3548    44.3476    36.1531   0    0  0 
52593.512383  12.00450    6.0402  179.5910   57.3540    44.2886    36.1384   0    0  0 
52593.613047  12.00450    6.0400  179.5910   57.3539    44.2693    36.1264   0    0  0 
52593.713710  12.00472    6.0409  179.5910   57.3547    44.2527    36.1588   0    0  0 
52593.814373  12.00478    6.0410  179.5910   57.3549    44.2641    36.1899   0    0  0 
52593.915037  12.00460    6.0406  179.5910   57.3545    44.2837    36.1419   0    0  0 
52594.015700  12.00460    6.0406  179.5910   57.3545    44.3369    36.1437   0    0  0 
52594.116363  12.00478    6.0403  179.5928   57.3541    44.2951    36.1025   0    0  0 
52594.217026  12.00482    6.0402  179.5932   57.3541    44.3185    36.1102   0    0  0 
52594.317690  12.00486    6.0401  179.5936   57.3540    44.3428    36.1004   0    0  0 
52594.418353  12.00497    6.0410  179.5893   57.3548    44.3069    36.1209   0    0  0 
52594.519016  12.00480    6.0395  179.5932   57.3534    44.3549    36.1439   0    0  0 
52594.619680  12.00480    6.0393  179.5937   57.3531    44.2850    36.1234   0    0  0 
52594.720343  12.00480    6.0390  179.5943   57.3529    44.2798    36.1561   0    0  0 
52594.821006  12.00508    6.0404  179.5892   57.3543    44.2917    36.1508   0    0  0 
52594.921670  12.00490    6.0402  179.5910   57.3541    44.3114    36.1774   0    0  0 
52595.022333  12.00490    6.0402  179.5910   57.3541    44.2746    36.1316   0    0  0 
52595.122996  12.00490    6.0402  179.5910   57.3541    44.2924    36.1702   0    0  0 
52595.223659  12.00513    6.0402  179.5910   57.3541    44.2308    36.2178   0    0  0 
52595.324323  12.00500    6.0407  179.5910   57.3545    44.2580    36.1797   0    0  0 
52595.424986  12.00500    6.0408  179.5910   57.3546    44.2302    36.1830   0    0  0 
52595.525649  12.00500    6.0409  179.5910   57.3547    44.2407    36.2248   0    0  0 
