#     FILENAME=Skynet_59519_moon_63319_12123.A.raw.txt
#     BASENAME=Skynet_59519_moon_63319_12123
#      CONTROL=SKYNET
#     PROJCODE=Skynet_59519_moon_63319
#     DATAROOT=/raid/scratch/cyborg/SkynetData
#      DATADIR=/raid/scratch/cyborg
#     DATADIR2=/raid/scratch/cyborg/SkynetData/Skynet_59519_moon_63319/Cyborg
#     SCANNAME=2019_06_26_10
#     SRC_NAME=moon
#     OBSERVER=reichart_2118
#     DATE_OBS=2021-11-01T14:34:13.150
#        OBSID=63319
#      SCANNUM=12123
#          MJD=59519.6070966
#          UTC=52453
#     SCANTYPE=daisy
#     DATAMODE=LOWRES
#     RECEIVER=Rx1_2
#      OBSFREQ=1395.0000
#    LO1Tuning=7000.0000
#     RFFILTER=1355_1435
#        OBSBW=-500.0000
#     EFFBANDW=80.0000
#        NCHAN=1024
#    STARTCHAN=747
#     STOPCHAN=911
#         TINT=0.3020
#         TBIN=0.00419430
#       ACCLEN=2048 
#     DURATION=142.38
#     EXPOSURE=121.40
#        FOCUS=37.071
#       RA,DEC=12:00:04.72, 06:01:43.33
#      RA(deg)=177.04002
#     DEC(deg)=6.02199
#   WIDTH(deg)=6.0566x6.0870
#    AZIM(deg)=184.6486
#    ELEV(deg)=57.2078
#     COORDREF=RA_DEC_
#         HREF=0.0000
#         VREF=0.0000
#      RADESYS=FK5
#       OFFSYS=RADEC
#      EQUINOX=2000.00
#     IFATTENS=20.00, 4.00
#   BALANCELEV=1.200 
#   POWER_XLYR=[1.62, 2.77] 
#       VELDEF=RADI-OBS 
#     VELOCITY=0.000 
#         NPOL=2 
#      POLMODE=Linear 
#      POLTYPE=XXYY 
#      WARNING=None 
#     NOISECAL=HI 
#       PRECAL=3 
#      POSTCAL=3 
#     CRYOTEMP=19 
#      BOXTEMP=26 
#         TSYS=YY1:44.50, XX1:36.34
#         TCAL=YY1:9.92, XX1:9.15
# Raw Continuum 
#                
#UTC_Time(s)    Ra(hr)  Dec(deg)   Az(deg)   El(deg)        YY1        XX1 Cal   Sweeps 
52453.150000  12.00046    6.0286  178.6206   57.3396   307.6415   227.7589  -1    0  0 
52453.250663  11.99875    6.0284  178.6682   57.3398   294.5361   216.9146  -1    0  0 
52453.351326  12.00058    6.0216  178.6203   57.3325   295.0210   216.8927  -1    0  0 
52453.451990  12.00029    6.0187  178.6297   57.3297   294.4045   217.1865  -1    0  0 
52453.552653  12.00115    6.0280  178.6037   57.3389   294.6883   216.9225  -1    0  0 
52453.653316  12.00123    6.0291  178.6017   57.3399   294.3276   217.1986  -1    0  0 
52453.753979  12.00131    6.0301  178.5997   57.3409   294.4172   216.9886  -1    0  0 
52453.854643  12.00139    6.0312  178.5977   57.3420   294.7536   217.0579  -1    0  0 
52453.955306  12.00061    6.0284  178.6270   57.3394   294.7292   217.2033  -1    0  0 
52454.055969  12.00101    6.0270  178.6117   57.3379   294.5526   217.4657  -1    0  0 
52454.156633  12.00104    6.0268  178.6111   57.3377   294.3698   217.5598  -1    0  0 
52454.257296  12.00107    6.0266  178.6105   57.3375   294.4240   217.2208  -1    0  0 
52454.357959  12.00114    6.0278  178.6134   57.3387   294.3459   217.2750  -1    0  0 
52454.458623  12.00118    6.0280  178.6138   57.3389   294.5553   216.8261  -1    0  0 
52454.559286  12.00110    6.0258  178.6145   57.3367   294.3300   217.3483  -1    0  0 
52454.659949  12.00110    6.0252  178.6150   57.3361   294.4223   217.3747  -1    0  0 
52454.760613  12.00110    6.0272  178.6152   57.3381   294.0207   217.5565  -1    0  0 
52454.861276  12.00110    6.0275  178.6155   57.3384   294.2100   217.3106  -1    0  0 
52454.961939  12.00123    6.0268  178.6125   57.3377   294.0046   217.5221  -1    0  0 
52455.062602  12.00128    6.0267  178.6114   57.3376   293.6667   217.4433  -1    0  0 
52455.163266  12.00120    6.0269  178.6160   57.3378   293.8670   217.3505  -1    0  0 
52455.263929  12.00120    6.0269  178.6172   57.3378   293.9701   217.3309  -1    0  0 
52455.364592  12.00135    6.0294  178.6131   57.3403   293.9938   217.3299  -1    0  0 
52455.465256  12.00142    6.0306  178.6116   57.3415   293.7185   217.3216  -1    0  0 
52455.565919  12.00130    6.0285  178.6162   57.3394   293.8243   217.1378  -1    0  0 
52455.666582  12.00130    6.0284  178.6171   57.3393   293.7266   217.1529  -1    0  0 
52455.767246  12.00155    6.0291  178.6110   57.3400   293.8327   216.9435  -1    0  0 
52455.867909  12.00166    6.0294  178.6087   57.3403   293.9632   216.8887  -1    0  0 
52455.968572  12.00178    6.0297  178.6065   57.3406   293.8347   217.0548  -1    0  0 
52456.069235  12.00150    6.0284  178.6148   57.3393   293.7758   216.9366  -1    0  0 
52456.169899  12.00158    6.0278  178.6123   57.3387   293.5579   216.8598  -1    0  0 
52456.270562  12.00163    6.0274  178.6115   57.3382   293.9844   216.7064  -1    0  0 
52456.371225  12.00167    6.0270  178.6107   57.3378   293.6833   216.8469  -1    0  0 
52456.471889  12.00174    6.0292  178.6134   57.3402   293.4949   216.7523  -1    0  0 
52456.572552  12.00184    6.0274  178.6101   57.3383   293.7038   216.8534  -1    0  0 
52456.673215  12.00193    6.0266  178.6084   57.3374   293.5558   216.6416  -1    0  0 
52456.773879  12.00201    6.0257  178.6068   57.3366   293.8624   216.5906  -1    0  0 
52456.874542  12.00180    6.0276  178.6121   57.3385   293.5262   216.7414  -1    0  0 
52456.975205  12.00188    6.0278  178.6112   57.3387   293.6986   216.5997  -1    0  0 
52457.075869  12.00194    6.0279  178.6106   57.3388   293.3746   216.5006  -1    0  0 
52457.176532  12.00199    6.0280  178.6101   57.3389   293.8300   216.5462  -1    0  0 
52457.277195  12.00190    6.0278  178.6110   57.3387   293.4771   216.6794   0    0  0 
52457.377858  12.00190    6.0278  178.6110   57.3387   293.5103   216.4917   0    0  0 
52457.478522  12.00190    6.0278  178.6110   57.3387   293.2176   216.6355   0    0  0 
52457.579185  12.00210    6.0268  178.6090   57.3377   293.2767   216.6082   0    0  0 
52457.679848  12.00216    6.0265  178.6084   57.3374   293.7204   216.5265   0    0  0 
52457.780512  12.00213    6.0289  178.6100   57.3398   293.2055   216.5968   0    0  0 
52457.881175  12.00216    6.0293  178.6100   57.3401   293.5003   216.5950   0    0  0 
52457.981838  12.00225    6.0269  178.6100   57.3378   293.0342   216.4168   0    0  0 
52458.082502  12.00230    6.0264  178.6100   57.3372   293.3793   216.8636   0    0  0 
52458.183165  12.00220    6.0281  178.6100   57.3390   293.8290   217.1468   0    0  0 
52458.283828  12.00220    6.0283  178.6100   57.3392   293.0144   216.8025   0    0  0 
52458.384491  12.00220    6.0286  178.6100   57.3395   293.2044   216.4440   0    0  0 
52458.485155  12.00247    6.0275  178.6100   57.3384   293.2931   216.6139   0    0  0 
52458.585818  12.00243    6.0276  178.6100   57.3384   293.5164   216.3708   0    0  0 
52458.686481  12.00247    6.0275  178.6100   57.3384   293.3420   216.4873   0    0  0 
52458.787145  12.00251    6.0274  178.6100   57.3383   293.2269   216.5922   0    0  0 
52458.887808  12.00255    6.0276  178.6085   57.3385   293.4078   216.4939   0    0  0 
52458.988471  12.00259    6.0276  178.6081   57.3385   293.2443   216.3578   0    0  0 
52459.089135  12.00263    6.0276  178.6077   57.3385   293.4009   216.5498   0    0  0 
52459.189798  12.00250    6.0289  178.6122   57.3398   293.4520   216.8829   0    0  0 
52459.290461  12.00266    6.0282  178.6084   57.3391   293.3247   216.6916   0    0  0 
52459.391125  12.00270    6.0282  178.6080   57.3391   293.2063   216.4906   0    0  0 
52459.491788  12.00275    6.0283  178.6075   57.3391   292.9157   216.2551   0    0  0 
52459.592451  12.00260    6.0272  178.6090   57.3381   293.0666   216.0513   0    0  0 
52459.693114  12.00283    6.0286  178.6090   57.3394   292.7555   215.8919   0    0  0 
52459.793778  12.00291    6.0289  178.6090   57.3397   292.8304   216.3185   0    0  0 
52459.894441  12.00299    6.0292  178.6090   57.3401   292.6176   216.1776   0    0  0 
52459.995104  12.00285    6.0277  178.6090   57.3386   293.1545   216.1126   0    0  0 
52460.095768  12.00289    6.0276  178.6090   57.3385   292.8260   216.1374   0    0  0 
52460.196431  12.00280    6.0284  178.6090   57.3393   292.5121   216.1874   0    0  0 
52460.297094  12.00280    6.0286  178.6090   57.3394   292.8377   216.1636   0    0  0 
52460.397757  12.00295    6.0277  178.6090   57.3385   292.6904   215.8279   0    0  0 
52460.498420  12.00299    6.0275  178.6090   57.3384   292.7641   215.8639   0    0  0 
52460.599084  12.00290    6.0276  178.6090   57.3384   293.2359   216.0227   0    0  0 
52460.699747  12.00290    6.0275  178.6090   57.3384   293.4239   215.9676   0    0  0 
52460.800410  12.00306    6.0279  178.6090   57.3388   292.7906   215.8869   0    0  0 
52460.901073  12.00311    6.0280  178.6090   57.3389   292.6963   215.6081   0    0  0 
52461.001737  12.00300    6.0275  178.6090   57.3384   292.8357   215.7966   0    0  0 
52461.102400  12.00300    6.0274  178.6090   57.3383   293.1147   215.6010   0    0  0 
52461.203063  12.00300    6.0273  178.6090   57.3381   292.6588   215.8549   0    0  0 
52461.303727  12.00317    6.0280  178.6090   57.3388   292.5238   215.9829   0    0  0 
52461.404390  12.00321    6.0280  178.6090   57.3389   292.7010   215.6855   0    0  0 
52461.505053  12.00325    6.0281  178.6090   57.3390   292.7819   215.6386   0    0  0 
52461.605717  12.00329    6.0278  178.6090   57.3387   292.8780   215.6743   0    0  0 
52461.706380  12.00333    6.0273  178.6090   57.3382   292.7242   216.0080   0    0  0 
52461.807043  12.00337    6.0272  178.6090   57.3380   292.9945   215.8840   0    0  0 
52461.907707  12.00341    6.0270  178.6090   57.3379   292.9305   216.1239   0    0  0 
52462.008370  12.00330    6.0282  178.6090   57.3391   292.6745   215.7129   0    0  0 
52462.109033  12.00346    6.0272  178.6090   57.3381   292.7506   215.8510   0    0  0 
52462.209696  12.00351    6.0270  178.6090   57.3379   292.8688   215.9762   0    0  0 
52462.310360  12.00356    6.0268  178.6090   57.3376   292.4690   215.7500   0    0  0 
52462.411023  12.00356    6.0281  178.6074   57.3390   292.3535   215.6145   0    0  0 
52462.511686  12.00360    6.0282  178.6070   57.3391   292.3243   215.6233   0    0  0 
52462.612350  12.00350    6.0264  178.6108   57.3373   292.2882   215.3919   0    0  0 
52462.713013  12.00350    6.0260  178.6116   57.3369   292.4245   215.3803   0    0  0 
52462.813676  12.00367    6.0279  178.6073   57.3387   292.2779   215.4479   0    0  0 
52462.914340  12.00371    6.0280  178.6069   57.3388   292.4674   215.5918   0    0  0 
52463.015003  12.00360    6.0273  178.6095   57.3382   292.5232   215.4483   0    0  0 
52463.115666  12.00360    6.0272  178.6099   57.3381   292.4605   215.4874   0    0  0 
52463.216329  12.00360    6.0272  178.6103   57.3380   292.5602   215.1471   0    0  0 
52463.316993  12.00370    6.0274  178.6090   57.3382   292.2899   215.3843   0    0  0 
52463.618983  12.00380    6.0275  178.6090   57.3384   292.0672   215.4384   0    0  0 
52463.920973  12.00391    6.0274  178.6090   57.3383   291.9870   215.5402   0    0  0 
52464.222963  12.00400    6.0274  178.6090   57.3383   291.5790   215.2555   0    0  1 
52464.524952  12.00400    6.0274  178.6090   57.3383   291.6756   215.3374   0    0  1 
52464.826942  12.00410    6.0276  178.6090   57.3385   291.6028   215.0061   0    0  1 
52465.128932  12.00420    6.0275  178.6090   57.3383   291.1521   215.2325   0    0  1 
52465.430922  12.00432    6.0277  178.6090   57.3385   291.1546   215.0919   0    0  1 
52465.732912  12.00442    6.0276  178.6090   57.3385   291.3262   215.0840   0    0  1 
52466.034902  11.99886    6.1223  178.7605   57.4343   291.6433   214.4431   0    0  1 
52466.336892  11.98732    6.2167  179.0834   57.5304   291.2757   215.0527   0    0  1 
52466.638882  11.98167    6.2459  179.2453   57.5598   291.4107   214.9296   0    0  1 
52466.940872  11.97445    6.2971  179.4493   57.6118   291.2375   215.4092   0    0  1 
52467.242862  11.95996    6.2912  179.8544   57.6051   291.7248   215.3408   0    0  1 
52467.544852  11.95154    6.3229  180.0939   57.6361   291.4656   215.4188   0    0  1 
52467.846841  11.93648    6.3093  180.5160   57.6205   291.2818   214.9925   0    0  1 
52468.148831  11.92348    6.3116  180.8828   57.6193   291.1791   214.3847   0    0  1 
52468.450821  11.90557    6.2987  181.3835   57.5997   291.2669   214.9756   0    0  1 
52468.752811  11.89256    6.2837  181.7483   57.5796   293.8675   215.4323   0    0  1 
52469.054800  11.86823    6.2500  182.4238   57.5338   295.5018   217.2875   0    0  1 
52469.356790  11.85215    6.2105  182.8725   57.4834   333.5956   248.0832   0    0  1 
52469.658780  11.83415    6.1407  183.3680   57.3999   508.7162   372.8257   0    0  1 
52469.960770  11.81505    6.0781  183.8922   57.3209   761.8869   548.3620   0    0  1 
52470.262760  11.79767    5.9942  184.3647   57.2210   798.0381   573.3892   0    0  1 
52470.564750  11.77873    5.9203  184.8778   57.1271   566.1693   413.6921   0    0  1 
52470.866740  11.76033    5.8424  185.3765   57.0302   358.2774   265.5482   0    0  1 
52471.168730  11.74318    5.7399  185.8332   56.9047   298.2912   218.8976   0    0  1 
52471.470720  11.72752    5.6521  186.2473   56.7959   294.2993   215.2187   0    0  1 
52471.772710  11.70832    5.5303  186.7516   56.6474   292.6964   214.6922   0    0  1 
52472.074700  11.69569    5.4322  187.0747   56.5298   291.8284   213.9833   0    0  1 
52472.376690  11.68223    5.3258  187.4194   56.4026   291.0859   213.6968   0    0  1 
52472.678679  11.66634    5.2004  187.8261   56.2516   291.3128   213.7779   0    0  1 
52472.980669  11.66298    5.1560  187.9035   56.2016   291.2299   213.8233   0    0  1 
52473.282659  11.64855    5.0046  188.2625   56.0252   290.7201   213.4812   0    0  1 
52473.584649  11.63845    4.8976  188.5084   55.9006   290.3381   213.1947   0    0  1 
52473.886639  11.63374    4.7979  188.6143   55.7926   290.1066   212.6990   0    0  1 
52474.188629  11.62931    4.7220  188.7145   55.7087   290.0996   213.0223   0    0  1 
52474.490619  11.62553    4.6408  188.7995   55.6207   289.9917   212.8418   0    0  1 
52474.792609  11.62520    4.5845  188.7986   55.5639   289.8940   213.0212   0    0  1 
52475.094599  11.62271    4.5144  188.8492   55.4896   290.1030   212.7584   0    0  1 
52475.396589  11.62638    4.4917  188.7515   55.4737   290.0321   212.5653   0    0  1 
52475.698578  11.62957    4.4610  188.6599   55.4492   289.9056   212.6832   0    0  1 
52476.000568  11.63383    4.4537  188.5516   55.4496   290.1090   212.4032   0    0  1 
52476.302558  11.64085    4.4506  188.3681   55.4592   290.3773   212.4749   0    0  1 
52476.604548  11.64841    4.4843  188.1793   55.5060   290.8588   212.6781   0    0  1 
52476.906538  11.65790    4.5304  187.9414   55.5683   291.3217   212.8106   0    0  1 
52477.208528  11.66684    4.5885  187.7181   55.6413   291.6829   213.2521   0    0  1 
52477.510517  11.68000    4.6790  187.3901   55.7527   291.6160   213.2344   0    0  1 
52477.812507  11.69259    4.7651  187.0766   55.8588   291.3825   213.3020   0    0  1 
52478.114497  11.70416    4.8922  186.7944   56.0023   290.9655   213.1487   0    0  1 
52478.416487  11.71778    5.0048  186.4478   56.1348   291.8166   213.5913   0    0  1 
52478.718477  11.73168    5.1720  186.1096   56.3203   294.0299   214.8020   0    0  1 
52479.020467  11.73470    5.2092  186.0359   56.3611   294.9302   215.4611   0    0  1 
52479.322457  11.75990    5.4942  185.3991   56.6776   326.5663   237.2991   0    0  1 
52479.624447  11.77114    5.6412  185.1224   56.8373   489.3802   352.3474   0    0  1 
52479.926437  11.78764    5.8701  184.7013   57.0843   739.4048   530.3959   0    0  1 
52480.228427  11.79896    6.0178  184.4097   57.2436   803.2994   574.6639   0    0  1 
52480.530417  11.81418    6.2670  184.0190   57.5064   585.4048   419.3176   0    0  1 
52480.832406  11.82770    6.4705  183.6717   57.7226   365.6994   265.2854   0    0  1 
52481.134396  11.83757    6.6586  183.4160   57.9184   298.4434   220.1330   0    0  1 
52481.436386  11.84945    6.8800  183.1066   58.1488   293.9958   217.1833   0    0  1 
52481.738376  11.85788    7.0521  182.8825   58.3264   292.1060   215.8186   0    0  1 
52482.040366  11.87227    7.3356  182.5022   58.6195   290.7169   214.8629   0    0  1 
52482.342356  11.87915    7.5030  182.3191   58.7909   291.2115   215.0432   0    0  1 
52482.644346  11.88789    7.7205  182.0853   59.0133   291.5893   215.5830   0    0  1 
52482.946336  11.89407    7.8930  181.9192   59.1891   291.9614   215.3593   0    0  1 
52483.248325  11.89792    8.0400  181.8180   59.3380   291.5598   215.2586   0    0  1 
52483.550315  11.90190    8.1946  181.7127   59.4945   291.3151   214.9582   0    0  1 
52483.852305  11.90327    8.2588  181.6787   59.5594   291.0785   214.7400   0    0  1 
52484.154295  11.90689    8.4509  181.5870   59.7532   290.5943   214.4529   0    0  1 
52484.456285  11.90690    8.5156  181.5934   59.8179   290.9541   214.5666   0    0  1 
52484.758275  11.90567    8.5836  181.6355   59.8854   290.9190   214.8155   0    0  1 
52485.060265  11.90474    8.6386  181.6682   59.9400   291.0971   214.7087   0    0  1 
52485.362255  11.90017    8.6453  181.8103   59.9446   290.8324   214.7771   0    0  1 
52485.664244  11.89665    8.6473  181.9160   59.9449   290.7416   214.7496   0    0  1 
52485.966234  11.89461    8.6429  181.9739   59.9395   291.1888   214.6977   0    0  1 
52486.268224  11.88690    8.5726  182.2032   59.8650   290.8541   215.0412   0    0  1 
52486.570214  11.88160    8.5015  182.3598   59.7907   291.3443   214.9263   0    0  1 
52486.872204  11.87486    8.4017  182.5522   59.6868   291.1029   214.9851   0    0  1 
52487.174194  11.86747    8.2652  182.7595   59.5455   291.1762   214.6523   0    0  1 
52487.476184  11.86085    8.1284  182.9446   59.4040   290.7940   214.4254   0    0  1 
52487.778174  11.85451    7.9813  183.1143   59.2523   290.3037   214.1134   0    0  1 
52488.080164  11.84443    7.7294  183.3897   58.9925   290.3256   213.8479   0    0  1 
52488.382154  11.83767    7.5412  183.5615   58.7990   290.5939   214.4289   0    0  1 
52488.684144  11.83090    7.3412  183.7376   58.5933   291.4385   216.2450   0    0  1 
52488.986133  11.82322    7.0490  183.9233   58.2940   294.0728   217.3622   0    0  1 
52489.288123  11.81627    6.8073  184.0949   58.0462   338.1217   243.6716   0    0  1 
52489.590113  11.81041    6.5367  184.2282   57.7700   520.0902   368.6686   0    0  1 
52489.892103  11.80412    6.2772  184.3761   57.5047   764.7168   545.5915   0    0  1 
52490.194093  11.79975    6.0032  184.4622   57.2263   792.9509   566.9499   0    0  1 
52490.496083  11.79475    5.7394  184.5672   56.9576   561.1462   398.0059   0    0  1 
52490.798073  11.79060    5.4234  184.6425   56.6375   355.6802   254.7890   0    0  1 
52491.100062  11.78699    5.1942  184.7104   56.4048   295.1894   216.9054   0    0  1 
52491.402052  11.78485    4.9172  184.7366   56.1256   289.8360   213.8207   0    0  1 
52491.704042  11.78322    4.6562  184.7492   55.8631   288.9629   211.8381   0    0  1 
52492.006032  11.78199    4.4125  184.7527   55.6184   288.1218   211.2051   0    0  1 
52492.308022  11.78073    4.1669  184.7569   55.3716   287.9356   211.0379   0    0  1 
52492.610012  11.78064    3.9651  184.7365   55.1699   288.3525   211.0247   0    0  1 
52492.912002  11.78100    3.7198  184.6938   54.9254   288.1538   210.9580   0    0  1 
52493.213992  11.78210    3.5846  184.6526   54.7913   287.7490   210.9429   0    0  1 
52493.515982  11.78463    3.4138  184.5705   54.6232   287.4367   210.2811   0    0  1 
52493.817971  11.78743    3.2746  184.4814   54.4870   286.7154   210.0693   0    0  1 
52494.119961  11.78998    3.1729  184.4074   54.3879   286.6947   210.0202   0    0  1 
52494.421951  11.79252    3.0519  184.3301   54.2695   286.3486   209.9096   0    0  1 
52494.723941  11.79525    2.9946  184.2535   54.2149   286.5430   210.1255   0    0  1 
52495.025931  11.79916    2.9863  184.1554   54.2103   286.2178   209.7235   0    0  1 
52495.327921  11.80286    3.0053  184.0685   54.2325   286.3700   209.7528   0    0  1 
52495.629911  11.80541    3.0054  184.0009   54.2351   286.3788   210.1359   0    0  1 
52495.931901  11.80902    3.0932  183.9220   54.3260   286.3706   209.9082   0    0  1 
52496.233891  11.81169    3.1828  183.8660   54.4178   286.3859   210.2557   0    0  1 
52496.535881  11.81430    3.2733  183.8074   54.5106   286.7104   210.4953   0    0  1 
52496.837871  11.81638    3.4117  183.7749   54.6505   287.0013   210.7069   0    0  1 
52497.139861  11.81848    3.5424  183.7328   54.7830   287.5714   211.2119   0    0  1 
52497.441850  11.81922    3.7625  183.7376   55.0035   287.4564   211.1612   0    0  1 
52497.743840  11.82000    3.9091  183.7341   55.1507   287.3303   211.4040   0    0  1 
52498.045830  11.82107    4.1592  183.7355   55.4015   287.1604   211.2717   0    0  1 
52498.347820  11.82021    4.4061  183.7855   55.6474   287.7691   211.6099   0    0  1 
52498.649809  11.81869    4.6647  183.8554   55.9045   289.3097   213.2514   0    0  1 
52498.951799  11.81681    4.9295  183.9333   56.1676   290.8345   214.5727   0    0  1 
52499.253789  11.81386    5.2198  184.0511   56.4548   322.8829   233.9884   0    0  1 
52499.555779  11.81145    5.4461  184.1427   56.6786   478.1790   339.7483   0    0  1 
52499.857769  11.80651    5.7683  184.3204   56.9957   722.0080   515.2023   0    0  1 
52500.159759  11.80380    5.9703  184.4246   57.1946   812.2622   580.9482   0    0  1 
52500.461749  11.79680    6.3110  184.6626   57.5278   621.6864   441.9235   0    0  1 
52500.763739  11.79072    6.5765  184.8717   57.7862   388.2852   277.8203   0    0  1 
52501.065729  11.78556    6.7964  185.0481   58.0001   300.0324   219.7434   0    0  1 
52501.367719  11.77788    7.0846  185.3133   58.2786   291.0044   215.4524   0    0  1 
52501.669709  11.77067    7.3268  185.5526   58.5118   290.3847   214.5363   0    0  1 
52501.971698  11.76742    7.4265  185.6724   58.6068   289.6947   213.4591   0    0  1 
52502.273688  11.75629    7.7506  186.0436   58.9156   289.3373   213.1611   0    0  1 
52502.575678  11.74853    7.9726  186.3068   59.1268   289.9817   213.3027   0    0  1 
52502.877668  11.74151    8.1078  186.5391   59.2513   290.2703   213.4834   0    0  1 
52503.179658  11.73404    8.2697  186.7925   59.4014   289.9454   213.3745   0    0  1 
52503.481648  11.72827    8.3738  186.9833   59.4963   289.7887   212.8600   0    0  1 
52503.783638  11.72160    8.4803  187.2052   59.5918   289.5697   212.8861   0    0  1 
52504.085628  11.71546    8.5580  187.4031   59.6593   289.2208   213.1610   0    0  1 
52504.387618  11.71075    8.6082  187.5556   59.7015   289.1101   213.0098   0    0  1 
52504.689608  11.70453    8.6525  187.7478   59.7351   289.1254   213.4128   0    0  1 
52504.991598  11.70080    8.6584  187.8630   59.7344   289.5691   212.8276   0    0  1 
52505.293588  11.69821    8.6360  187.9366   59.7075   289.4657   213.1571   0    0  1 
52505.595577  11.69482    8.5889  188.0264   59.6548   289.5465   213.1684   0    0  1 
52505.897567  11.69529    8.5252  188.0005   59.5920   289.7646   213.0202   0    0  1 
52506.199557  11.69524    8.4254  187.9790   59.4927   289.8756   213.3822   0    0  1 
52506.501547  11.69560    8.3218  187.9489   59.3900   290.3141   213.3353   0    0  1 
52506.803536  11.69838    8.2152  187.8466   59.2885   290.4616   213.5715   0    0  1 
52507.105526  11.70298    8.0070  187.6690   59.0891   290.8572   214.0719   0    0  1 
52507.407516  11.70726    7.8165  187.5046   58.9066   290.7002   214.0172   0    0  1 
52507.709506  11.71357    7.6900  187.3035   58.7904   290.2333   213.3476   0    0  1 
52508.011496  11.72043    7.4523  187.0598   58.5645   289.8052   213.0484   0    0  1 
52508.313486  11.72929    7.2795  186.7769   58.4056   290.7059   212.7870   0    0  1 
52508.615476  11.73374    7.1214  186.6221   58.2546   292.6123   214.0335   0    0  1 
52508.917466  11.74668    6.8900  186.2161   58.0425   293.1861   214.6029   0    0  1 
52509.219456  11.75844    6.6758  185.8531   57.8443   303.6372   222.7738   0    0  1 
52509.521446  11.77003    6.4701  185.5009   57.6532   408.5744   298.9916   0    0  1 
52509.823436  11.78402    6.2816  185.0840   57.4817   660.3604   476.1949   0    0  1 
52510.125426  11.79459    6.0828  184.7662   57.2950   820.8111   588.1149   0    0  1 
52510.427415  11.80912    5.8380  184.3370   57.0658   672.2068   482.2655   0    0  1 
52510.729405  11.82427    5.6656  183.9058   56.9069   424.0461   308.5919   0    0  1 
52511.031395  11.83606    5.4963  183.5681   56.7480   304.5807   224.3453   0    0  1 
52511.333385  11.85399    5.2933  183.0578   56.5595   290.2155   213.1107   0    0  1 
52511.635375  11.86606    5.1401  182.7217   56.4142   289.3272   212.7427   0    0  1 
52511.937365  11.87830    5.0284  182.3872   56.3098   286.6706   211.7545   0    0  1 
52512.239355  11.89370    4.8947  181.9662   56.1841   286.3804   211.3637   0    0  1 
52512.541345  11.90431    4.7733  181.6711   56.0679   286.5938   212.0759   0    0  1 
52512.843335  11.91740    4.6830  181.3207   55.9830   286.8135   212.3467   0    0  1 
52513.145325  11.93037    4.5853  180.9710   55.8893   286.8069   211.9132   0    0  1 
52513.447315  11.94038    4.5311  180.7062   55.8375   286.0320   211.3657   0    0  1 
52513.749304  11.95154    4.4873  180.4101   55.7963   285.3815   210.8187   0    0  1 
52514.051294  11.95786    4.4557  180.2407   55.7657   285.1422   210.4722   0    0  1 
52514.353284  11.96428    4.4553  180.0713   55.7661   284.9322   210.1991   0    0  1 
52514.655274  11.97015    4.4592  179.9174   55.7704   284.9662   210.0454   0    0  1 
52514.957263  11.97426    4.4740  179.8124   55.7855   284.7582   210.0223   0    0  1 
52515.259253  11.97649    4.5121  179.7548   55.8238   285.0104   210.0440   0    0  1 
52515.561243  11.97687    4.5765  179.7461   55.8883   284.8340   210.1493   0    0  1 
52515.863233  11.97658    4.6152  179.7578   55.9270   284.7705   210.4182   0    0  1 
52516.165223  11.97559    4.7217  179.7887   56.0336   284.7362   209.9432   0    0  1 
52516.467213  11.96748    4.8146  180.0075   56.1260   285.0994   210.1657   0    0  1 
52516.769203  11.96279    4.9040  180.1372   56.2150   285.5402   210.4371   0    0  1 
52517.071193  11.95456    5.0045  180.3654   56.3143   285.6319   210.8407   0    0  1 
52517.373183  11.94722    5.1035  180.5681   56.4123   285.6618   210.8541   0    0  1 
52517.675173  11.93673    5.2038  180.8535   56.5102   285.7139   211.0224   0    0  1 
52517.977163  11.92210    5.3202  181.2608   56.6217   285.3413   210.9460   0    0  1 
52518.279153  11.90664    5.4253  181.6888   56.7211   285.9151   211.2566   0    0  1 
52518.581142  11.89390    5.5435  182.0488   56.8326   287.5462   211.6064   0    0  1 
52518.883132  11.88422    5.5974  182.3189   56.8814   288.7389   212.2307   0    0  1 
52519.185122  11.85994    5.7804  182.9987   57.0502   297.7453   220.6695   0    0  1 
52519.487112  11.84873    5.8184  183.3170   57.0782   377.0277   280.9593   0    0  1 
52519.789102  11.82206    5.9513  184.0651   57.1894   615.5961   447.1849   0    0  1 
52520.091092  11.80710    6.0104  184.4907   57.2325   814.4051   582.6002   0    0  1 
52520.393082  11.79148    6.0800  184.9321   57.2852   718.6081   518.6695   0    0  1 
52520.695072  11.77049    6.1456  185.5240   57.3265   448.3327   332.2785   0    0  1 
52520.997062  11.75311    6.1919  186.0135   57.3498   314.2714   234.5970   0    0  1 
52521.299052  11.73784    6.2339  186.4467   57.3709   289.9904   212.3306   0    0  1 
52521.601041  11.71766    6.2665  187.0093   57.3734   288.9929   210.9750   0    0  1 
52521.903031  11.70289    6.2889  187.4265   57.3723   287.8322   210.4672   0    0  1 
52522.205021  11.68496    6.3150  187.9279   57.3686   287.0347   210.9776   0    0  1 
52522.507011  11.66684    6.3163  188.4276   57.3374   287.3683   210.4147   0    0  1 
52522.809001  11.65141    6.3079  188.8545   57.3005   287.6524   210.7521   0    0  1 
52523.110991  11.64081    6.2841  189.1393   57.2557   287.5102   210.7216   0    0  1 
52523.412980  11.62915    6.2527  189.4556   57.2012   286.9563   210.2569   0    0  1 
52523.714970  11.61737    6.2363  189.7710   57.1611   286.7312   210.1883   0    0  1 
52524.016960  11.61038    6.1901  189.9567   57.0996   286.8692   210.0530   0    0  1 
52524.318950  11.60628    6.1450  190.0572   57.0459   286.6032   209.8269   0    0  1 
52524.620940  11.60055    6.1195  190.2092   57.0082   286.6864   209.9067   0    0  1 
52524.922930  11.59966    6.0631  190.2192   56.9501   286.5128   209.8462   0    0  1 
52525.224920  11.59884    6.0162  190.2302   56.9018   286.7021   209.8416   0    0  1 
52525.526910  11.59845    5.9712  190.2290   56.8563   286.7993   210.1028   0    0  1 
52525.828900  11.60323    5.9238  190.0918   56.8193   286.6752   209.5685   0    0  1 
52526.130890  11.60503    5.8698  190.0297   56.7696   286.9532   209.5672   0    0  1 
52526.432880  11.61359    5.8369  189.7934   56.7548   286.4438   209.6264   0    0  1 
52526.734869  11.62110    5.7939  189.5812   56.7279   286.6988   209.8272   0    0  1 
52527.036859  11.63314    5.7618  189.2510   56.7199   286.6086   209.9472   0    0  1 
52527.338849  11.64512    5.7547  188.9270   56.7365   286.8785   210.0822   0    0  1 
52527.640839  11.65593    5.7312  188.6313   56.7332   287.1403   210.3970   0    0  1 
52527.942829  11.66889    5.7327  188.2827   56.7582   287.0230   210.4052   0    0  1 
52528.244819  11.68434    5.7454  187.8689   56.7978   287.3968   210.4269   0    0  1 
52528.546809  11.70119    5.7579  187.4146   56.8378   288.2536   210.5785   0    0  1 
52528.848799  11.71763    5.7699  186.9722   56.8771   289.6794   210.8963   0    0  1 
52529.150788  11.73288    5.8242  186.5703   56.9531   297.6142   218.9170   0    0  1 
52529.452778  11.75236    5.8635  186.0457   57.0182   370.4039   275.0575   0    0  1 
52529.754768  11.77079    5.9176  185.5505   57.0961   614.8566   446.5611   0    0  1 
52530.056758  11.79071    5.9885  185.0169   57.1905   809.1582   580.4436   0    0  1 
52530.358748  11.80977    6.0644  184.5034   57.2865   700.5779   504.3525   0    0  1 
52530.660738  11.82754    6.1433  184.0232   57.3823   449.8736   331.0490   0    0  1 
52530.962728  11.84609    6.2394  183.5206   57.4948   307.0855   227.5553   0    0  1 
52531.264718  11.86398    6.3429  183.0362   57.6116   290.6471   213.5522   0    0  1 
52531.566707  11.87980    6.4364  182.6016   57.7163   289.5397   212.7213   0    0  1 
52531.868697  11.89702    6.5688  182.1370   57.8591   286.7649   211.4554   0    0  1 
52532.170687  11.91168    6.6737  181.7308   57.9709   286.2845   211.2280   0    0  1 
52532.472677  11.92445    6.7841  181.3780   58.0862   286.7371   211.2575   0    0  1 
52532.774667  11.93187    6.8442  181.1741   58.1492   286.9600   211.3483   0    0  1 
52533.076657  11.94944    6.9992  180.6865   58.3099   287.3409   211.7314   0    0  1 
52533.378647  11.95620    7.0826  180.4965   58.3948   287.0384   211.2042   0    0  1 
52533.680637  11.96324    7.1768  180.3004   58.4901   286.5130   211.1831   0    0  1 
52533.982627  11.97152    7.2740  180.0693   58.5892   286.7775   210.7755   0    0  1 
52534.284617  11.97406    7.3514  179.9977   58.6663   286.5778   210.9208   0    0  1 
52534.586607  11.97710    7.4201  179.9168   58.7353   286.4638   211.2542   0    0  1 
52534.888596  11.97751    7.4798  179.9045   58.7950   286.3825   211.1921   0    0  1 
52535.190586  11.97604    7.5306  179.9503   58.8458   286.4999   211.1488   0    0  1 
52535.492576  11.97563    7.5716  179.9687   58.8868   286.6199   211.4668   0    0  1 
52535.794566  11.97054    7.5773  180.1151   58.8919   286.9983   211.3516   0    0  1 
52536.096556  11.96460    7.5873  180.2889   58.9012   287.2301   211.4557   0    0  1 
52536.398546  11.95906    7.5983  180.4508   58.9114   287.3940   211.3702   0    0  1 
52536.700535  11.94932    7.5479  180.7334   58.8587   288.2551   211.1889   0    0  1 
52537.002525  11.93964    7.5061  181.0119   58.8141   288.0501   212.0144   0    0  1 
52537.304515  11.93085    7.4374  181.2689   58.7423   288.2053   212.4754   0    0  1 
52537.606505  11.91832    7.3373  181.6245   58.6370   288.2613   212.6110   0    0  1 
52537.908495  11.90689    7.2501  181.9509   58.5454   287.2663   212.1693   0    0  1 
52538.210485  11.89757    7.1722  182.2100   58.4622   287.3788   211.7158   0    0  1 
52538.512475  11.87967    7.0071  182.7118   58.2861   288.7436   212.6427   0    0  1 
52538.814465  11.86703    6.8530  183.0587   58.1230   291.2116   214.0742   0    0  1 
52539.116455  11.85527    6.7337  183.3796   57.9946   294.9430   216.4041   0    0  1 
52539.418445  11.83739    6.5153  183.8620   57.7611   364.7841   264.8952   0    0  1 
52539.720434  11.82313    6.3293  184.2376   57.5617   588.4156   421.3440   0    0  1 
52540.022424  11.80947    6.1200  184.5918   57.3386   803.7157   574.5212   0    0  1 
52540.324414  11.79659    5.9438  184.9247   57.1490   719.7716   515.3109   0    0  1 
52540.626404  11.78381    5.7390  185.2495   56.9301   461.2091   330.2329   0    0  1 
52540.928394  11.76943    5.4978  185.6072   56.6714   314.2739   228.3955   0    0  1 
52541.230384  11.75722    5.2830  185.9084   56.4415   288.9868   212.1940   0    0  1 
52541.532374  11.74607    5.0650  186.1724   56.2089   288.1950   211.6338   0    0  1 
52541.834364  11.74007    4.9415  186.3151   56.0775   286.5381   210.1339   0    0  1 
52542.136354  11.72406    4.6244  186.6939   55.7386   285.6413   209.5110   0    0  1 
52542.438344  11.71852    4.4697  186.8119   55.5759   285.8905   209.1862   0    0  1 
52542.740334  11.71217    4.2814  186.9453   55.3789   285.8319   209.0614   0    0  1 
52543.042324  11.70612    4.1084  187.0789   55.1969   285.4288   208.8402   0    0  1 
52543.344313  11.70263    3.9635  187.1415   55.0473   285.0432   208.4798   0    0  1 
52543.646303  11.69761    3.8148  187.2486   54.8911   284.8511   208.7102   0    0  1 
52543.948293  11.69677    3.6896  187.2508   54.7648   284.4548   208.7371   0    0  1 
52544.250283  11.69536    3.5852  187.2697   54.6586   284.2695   208.7756   0    0  1 
52544.552272  11.69499    3.4966  187.2638   54.5697   284.4611   208.3068   0    0  1 
52544.854262  11.69664    3.4430  187.2145   54.5188   284.3624   208.2132   0    0  1 
52545.156252  11.69748    3.3749  187.1829   54.4522   284.7593   208.6671   0    0  1 
52545.458242  11.70201    3.3842  187.0672   54.4686   284.4813   208.1392   0    0  1 
52545.760232  11.70624    3.3816  186.9639   54.4721   284.5533   208.3854   0    0  1 
52546.062222  11.71158    3.4384  186.8362   54.5367   284.8296   208.0962   0    0  1 
52546.364212  11.71727    3.5152  186.7092   54.6213   284.9963   208.1585   0    0  1 
52546.666202  11.72180    3.5549  186.5976   54.6676   285.0985   208.4177   0    0  1 
52546.968192  11.72891    3.6860  186.4364   54.8084   285.2091   208.0898   0    0  1 
52547.270182  11.73617    3.8274  186.2735   54.9594   285.1034   208.4932   0    0  1 
52547.572172  11.74345    3.9729  186.1101   55.1143   284.7625   208.5112   0    0  1 
52547.874161  11.75209    4.1740  185.9223   55.3261   284.6290   208.5410   0    0  1 
52548.176151  11.75844    4.3609  185.7828   55.5206   284.8837   209.1075   0    0  1 
52548.478141  11.76548    4.5616  185.6286   55.7297   285.9900   209.8125   0    0  1 
52548.780131  11.77325    4.8195  185.4617   55.9966   287.0361   211.3686   0    0  1 
52549.082121  11.78107    5.0856  185.2937   56.2714   295.7504   215.8873   0    0  1 
52549.384111  11.78713    5.3337  185.1681   56.5260   378.2832   268.4377   0    0  1 
52549.686101  11.79380    5.5967  185.0272   56.7962   606.2507   428.3149   0    0  1 
52549.988091  11.79938    5.8819  184.9129   57.0871   806.4767   574.7776   0    0  1 
52550.290081  11.80422    6.1685  184.8250   57.3784   737.9852   524.2072   0    0  1 
52550.592071  11.80843    6.4370  184.7437   57.6511   496.1527   349.7898   0    0  1 
52550.894061  11.81292    6.7093  184.6573   57.9278   330.4823   237.3357   0    0  1 
52551.196051  11.81547    6.9560  184.6236   58.1767   290.3271   214.1384   0    0  1 
52551.498040  11.81902    7.2159  184.5626   58.4399   287.6956   212.8538   0    0  1 
52551.800030  11.81922    7.4574  184.5881   58.6813   287.2429   211.7452   0    0  1 
52552.102020  11.82083    7.6980  184.5766   58.9233   287.0193   211.2570   0    0  1 
52552.404010  11.82079    7.9436  184.6176   59.1683   287.3469   211.3001   0    0  1 
52552.705999  11.82043    8.1642  184.6581   59.3883   287.5578   211.8382   0    0  1 
52553.007989  11.81991    8.3319  184.6989   59.5552   287.6376   211.9813   0    0  1 
52553.309979  11.81802    8.5149  184.7848   59.7358   286.9846   212.1912   0    0  1 
52553.611969  11.81603    8.6735  184.8692   59.8920   287.2887   211.8894   0    0  1 
52553.913959  11.81416    8.8397  184.9512   60.0558   287.2790   212.1385   0    0  1 
52554.215949  11.81023    8.9243  185.0811   60.1359   287.2979   212.1730   0    0  1 
52554.517939  11.80802    8.9926  185.1653   60.2012   287.5165   211.7908   0    0  1 
52554.819929  11.80567    9.0162  185.2376   60.2221   287.2868   212.2309   0    0  1 
52555.121919  11.80105    9.0733  185.3889   60.2735   287.3407   212.0541   0    0  1 
52555.423909  11.79856    9.0387  185.4612   60.2358   287.3120   211.9609   0    0  1 
52555.725899  11.79519    8.9858  185.5544   60.1788   287.0843   211.9776   0    0  1 
52556.027889  11.79267    8.9498  185.6288   60.1395   287.3165   211.9068   0    0  1 
52556.329878  11.78940    8.8297  185.7065   60.0155   287.6217   212.0292   0    0  1 
52556.631868  11.78714    8.7647  185.7644   59.9477   287.4907   212.1903   0    0  1 
52556.933858  11.78485    8.5936  185.8011   59.7741   287.6385   211.8189   0    0  1 
52557.235848  11.78309    8.4151  185.8282   59.5935   287.4858   212.1262   0    0  1 
52557.537838  11.78174    8.2463  185.8402   59.4232   287.4298   211.7035   0    0  1 
52557.839828  11.78127    8.0034  185.8116   59.1804   287.4862   211.6213   0    0  1 
52558.141818  11.78116    7.7866  185.7811   58.9637   287.0519   211.6853   0    0  1 
52558.443808  11.78254    7.5861  185.7145   58.7652   287.8144   212.0242   0    0  1 
52558.745798  11.78362    7.2897  185.6348   58.4708   288.1890   213.2745   0    0  1 
52559.047788  11.78632    7.0236  185.5182   58.2085   292.8986   215.1762   0    0  1 
52559.349778  11.78892    6.7030  185.3948   57.8917   354.5598   254.2824   0    0  1 
52559.651767  11.79125    6.4976  185.3013   57.6894   552.3949   392.2695   0    0  1 
52559.953757  11.79627    6.2382  185.1271   57.4362   786.9906   562.6084   0    0  1 
52560.255747  11.80162    5.9467  184.9403   57.1511   767.3032   547.7410   0    0  1 
52560.557737  11.80606    5.6862  184.7860   56.8957   526.0641   373.4824   0    0  1 
52560.859726  11.81273    5.4352  184.5712   56.6521   335.2177   241.9983   0    0  1 
52561.161716  11.81964    5.1403  184.3509   56.3643   290.4517   213.8339   0    0  1 
52561.463706  11.82569    4.9004  184.1621   56.1304   287.1687   211.7960   0    0  1 
52561.765696  11.83387    4.6524  183.9163   55.8902   285.2958   209.9086   0    0  1 
52562.067686  11.84061    4.4113  183.7124   55.6552   284.2266   209.1193   0    0  1 
52562.369676  11.84830    4.2280  183.4958   55.4782   283.4947   208.9509   0    0  1 
52562.671666  11.85630    4.0329  183.2689   55.2894   284.2577   209.0573   0    0  1 
52562.973656  11.86325    3.8825  183.0750   55.1439   284.3919   208.8722   0    0  1 
52563.275646  11.87038    3.7213  182.8751   54.9881   284.0836   209.1258   0    0  1 
52563.577636  11.87701    3.6093  182.6976   54.8804   283.7567   209.0546   0    0  1 
52563.879626  11.88373    3.5033  182.5158   54.7784   283.5489   208.7874   0    0  1 
52564.181616  11.88895    3.4597  182.3791   54.7379   283.5230   208.9461   0    0  1 
52564.483605  11.89401    3.4114  182.2470   54.6924   283.5368   208.6728   0    0  1 
52564.785595  11.89812    3.4082  182.1412   54.6914   283.3492   208.6979   0    0  1 
52565.087585  11.90205    3.3891  182.0395   54.6744   283.2457   208.8167   0    0  1 
52565.389575  11.90395    3.4173  181.9960   54.7035   282.9479   208.8411   0    0  1 
52565.691565  11.90622    3.4824  181.9434   54.7697   283.0098   209.2297   0    0  1 
52565.993555  11.90740    3.5526  181.9174   54.8406   283.2458   209.2401   0    0  1 
52566.295545  11.90669    3.6576  181.9446   54.9452   283.4508   209.5713   0    0  1 
52566.597535  11.90646    3.7498  181.9587   55.0373   283.8908   209.8145   0    0  1 
52566.899525  11.90223    3.9176  182.0823   55.2030   284.5766   210.3283   0    0  1 
52567.201514  11.90038    4.0304  182.1408   55.3148   285.4567   210.8518   0    0  1 
52567.503504  11.89381    4.2199  182.3282   55.5007   285.4099   210.3875   0    0  1 
52567.805494  11.88625    4.4293  182.5457   55.7057   284.8971   210.1684   0    0  1 
52568.107484  11.88077    4.5735  182.7031   55.8465   284.8287   209.8278   0    0  1 
52568.409474  11.86912    4.8066  183.0398   56.0717   285.5061   210.0998   0    0  1 
52568.711464  11.86180    5.0138  183.2577   56.2730   287.9017   211.3346   0    0  1 
52569.013454  11.85314    5.1942  183.5088   56.4466   289.3732   212.4710   0    0  1 
52569.315443  11.83691    5.4523  183.9801   56.6908   322.0153   236.3099   0    0  1 
52569.617433  11.82687    5.6521  184.2823   56.8805   484.9523   352.4070   0    0  1 
52569.919423  11.81593    5.8435  184.6080   57.0605   728.6574   522.7419   0    0  1 
52570.221413  11.80031    6.0619  185.0698   57.2614   795.5962   569.2845   0    0  1 
52570.523403  11.78825    6.2443  185.4325   57.4294   585.1242   422.7599   0    0  1 
52570.825393  11.77363    6.4445  185.8737   57.6103   365.6073   267.6092   0    0  1 
52571.127383  11.75995    6.6374  186.2866   57.7856   294.8048   216.2924   0    0  1 
52571.429373  11.74148    6.8083  186.8340   57.9296   290.2815   212.5198   0    0  1 
52571.731363  11.73427    6.9081  187.0616   58.0164   288.7019   211.5752   0    0  1 
52572.033353  11.71657    7.1022  187.6024   58.1816   286.8797   210.5768   0    0  1 
52572.335343  11.70466    7.1916  187.9594   58.2498   286.5921   210.4437   0    0  1 
52572.637332  11.69212    7.2974  188.3391   58.3329   286.4201   211.0984   0    0  1 
52572.939322  11.68032    7.3790  188.6944   58.3923   286.5701   210.8570   0    0  1 
52573.241312  11.66924    7.4543  189.0283   58.4456   286.4096   210.5349   0    0  1 
52573.543302  11.65874    7.5225  189.3458   58.4924   286.4630   210.4312   0    0  1 
52573.845292  11.64896    7.5515  189.6312   58.5010   286.4916   210.1566   0    0  1 
52574.147282  11.64008    7.5969  189.8958   58.5276   285.9382   210.5534   0    0  1 
52574.449272  11.63345    7.6025  190.0855   58.5190   286.3963   209.9453   0    0  1 
52574.751262  11.62738    7.5893  190.2577   58.4923   286.3291   210.2252   0    0  1 
52575.053251  11.62689    7.5425  190.2608   58.4445   286.4412   209.8979   0    0  1 
52575.355241  11.62371    7.5173  190.3461   58.4124   286.1870   210.0432   0    0  1 
52575.657231  11.62274    7.4644  190.3593   58.3577   285.9076   210.0138   0    0  1 
52575.959221  11.62673    7.3831  190.2284   58.2856   285.7630   210.1063   0    0  1 
52576.261211  11.63098    7.3007  190.0871   58.2131   285.9420   210.1072   0    0  1 
52576.563201  11.63410    7.2251  189.9798   58.1449   285.7290   210.2610   0    0  1 
52576.865191  11.64141    7.1134  189.7512   58.0491   286.0237   210.1802   0    0  1 
52577.167181  11.64859    7.0532  189.5330   58.0045   286.6098   210.3481   0    0  1 
52577.469170  11.65919    6.9167  189.2069   57.8899   286.2087   210.2467   0    0  1 
52577.771160  11.67075    6.7906  188.8576   57.7871   286.1502   209.8580   0    0  1 
52578.073150  11.68466    6.6746  188.4469   57.6974   286.1085   209.8827   0    0  1 
52578.375140  11.69792    6.5573  188.0536   57.6055   286.4937   209.7422   0    0  1 
52578.677130  11.71211    6.4842  187.6441   57.5573   288.2735   210.2127   0    0  1 
52578.979120  11.72908    6.3652  187.1541   57.4652   289.1288   211.3766   0    0  1 
52579.281110  11.74469    6.2634  186.7087   57.3870   315.1496   234.5271   0    0  1 
52579.583100  11.76197    6.1864  186.2160   57.3351   463.6239   343.5503   0    0  1 
52579.885090  11.78223    6.0912  185.6456   57.2665   718.8358   519.4866   0    0  1 
52580.187080  11.79595    6.0251  185.2631   57.2171   806.4406   577.5395   0    0  1 
52580.489070  11.81565    5.9314  184.7068   57.1466   605.2100   440.2222   0    0  1 
52580.791059  11.83022    5.8991  184.3047   57.1275   368.1625   274.5487   0    0  1 
52581.093049  11.85981    5.8344  183.4853   57.0907   292.3709   216.5882   0    0  1 
52581.395039  11.87610    5.7542  183.0285   57.0234   287.2996   210.7311   0    0  1 
52581.697029  11.88811    5.7649  182.7086   57.0417   285.6419   210.2820   0    0  1 
52581.999019  11.90589    5.7480  182.2165   57.0344   284.1306   210.0807   0    0  1 
52582.301009  11.92182    5.7309  181.7803   57.0256   284.0090   209.6113   0    0  1 
52582.602998  11.93608    5.7323  181.3924   57.0326   283.9316   209.9818   0    0  1 
52582.904988  11.95052    5.7355  180.9963   57.0410   284.1468   210.0715   0    0  1 
52583.206978  11.96493    5.7532  180.6042   57.0623   284.1426   209.7573   0    0  1 
52583.508968  11.97574    5.7896  180.3088   57.1008   284.2736   209.6659   0    0  1 
52583.810958  11.98668    5.8226  180.0101   57.1359   284.0895   209.6069   0    0  1 
52584.112948  11.99245    5.8526  179.8539   57.1661   283.6017   209.6800   0    0  1 
52584.414938  11.99711    5.9006  179.7251   57.2142   283.8833   209.6066   0    0  1 
52584.716928  11.99987    5.9394  179.6537   57.2531   284.1552   209.5510   0    0  1 
52585.018918  12.00446    5.9996  179.5271   57.3134   284.0264   209.5598   0    0  1 
52585.320908  12.00362    6.0402  179.5566   57.3541   283.8574   209.6244   0    0  1 
52585.622897  12.00413    6.0918  179.5434   57.4057   283.9983   209.4460   0    0  0 
52585.924887  12.00410    6.1140  179.5449   57.4280   283.9429   209.7099   0    0  0 
52586.226877  12.00426    6.1421  179.5418   57.4561   284.3670   209.7373   0    0  0 
52586.528867  12.00211    5.9686  179.6038   57.2824   283.7915   209.7595   0    0  0 
52586.830857  12.00139    5.9205  179.6252   57.2342   284.1149   209.3670   0    0  0 
52586.969269  12.00106    5.8985  179.6351   57.2122   283.6798   209.9247   0    0  0 
52587.069932  12.00083    5.8824  179.6422   57.1961   284.0898   209.8866   0    0  0 
52587.170596  12.00059    5.8664  179.6494   57.1801   283.9531   209.4592  -1    0  0 
52587.271259  12.00035    5.8504  179.6565   57.1640   340.0457   255.9459   1    0  0 
52587.371922  12.00011    5.8343  179.6637   57.1480   349.9102   264.4552   1    0  0 
52587.472586  12.00310    6.0573  179.5845   57.3712   350.0403   264.8271   1    0  0 
52587.573249  12.00310    6.0590  179.5853   57.3728   349.9127   264.8340   1    0  0 
52587.673912  12.00299    6.0413  179.5902   57.3552   350.0281   264.5141   1    0  0 
52587.774576  12.00298    6.0414  179.5913   57.3553   349.9939   264.6377   1    0  0 
52587.875239  12.00300    6.0419  179.5912   57.3558   350.3233   264.8385   1    0  0 
52587.975902  12.00300    6.0421  179.5919   57.3560   350.4441   265.0404   1    0  0 
52588.076566  12.00311    6.0414  179.5887   57.3552   350.4247   265.3980   1    0  0 
52588.177229  12.00316    6.0412  179.5877   57.3550   331.2967   248.9339   1    0  0 
52588.277892  12.00321    6.0410  179.5867   57.3548   331.3011   248.6265   1    0  0 
52588.378555  12.00310    6.0400  179.5925   57.3539   350.1133   265.2106   1    0  0 
52588.479219  12.00310    6.0415  179.5922   57.3553   349.9278   265.0526   1    0  0 
52588.579882  12.00310    6.0418  179.5927   57.3557   350.0814   265.1399   1    0  0 
52588.680545  12.00310    6.0422  179.5932   57.3560   349.7035   264.6880   1    0  0 
52588.781209  12.00327    6.0377  179.5903   57.3516   350.2218   264.7701   1    0  0 
52588.881872  12.00320    6.0403  179.5929   57.3542   350.3063   264.9976   1    0  0 
52588.982535  12.00320    6.0408  179.5936   57.3547   350.4282   264.8487   1    0  0 
52589.083199  12.00320    6.0413  179.5944   57.3551   350.2099   265.0013   1    0  0 
52589.183862  12.00348    6.0401  179.5902   57.3540   350.3441   264.5766   1    0  0 
52589.284525  12.00340    6.0424  179.5925   57.3563   350.6279   264.7682   1    0  0 
52589.385188  12.00340    6.0436  179.5934   57.3574   350.1181   264.8422   1    0  0 
52589.485852  12.00340    6.0447  179.5942   57.3586   350.1865   264.8359   1    0  0 
52589.586515  12.00357    6.0380  179.5887   57.3518   350.2698   264.7858   1    0  0 
52589.687178  12.00350    6.0418  179.5927   57.3556   350.3321   264.6911   1    0  0 
52589.787842  12.00350    6.0427  179.5939   57.3566   350.3516   265.0023   1    0  0 
52589.888505  12.00350    6.0437  179.5950   57.3575   350.6226   264.8510   1    0  0 
52589.989168  12.00371    6.0401  179.5879   57.3540   350.3426   264.9216   1    0  0 
52590.089831  12.00360    6.0399  179.5915   57.3537   350.3505   265.0372   1    0  0 
52590.190494  12.00360    6.0396  179.5921   57.3535   349.9966   264.8393   1    0  0 
52590.291158  12.00360    6.0393  179.5926   57.3532   350.0326   264.5260   1    0  0 
52590.391821  12.00377    6.0406  179.5893   57.3545   350.2613   264.7989   1    0  0 
52590.492484  12.00370    6.0391  179.5915   57.3530   350.3257   264.9484   1    0  0 
52590.593147  12.00370    6.0386  179.5920   57.3525   350.4433   264.7246   1    0  0 
52590.693811  12.00370    6.0381  179.5926   57.3520   349.8925   264.8626   1    0  0 
52590.794474  12.00390    6.0409  179.5890   57.3548   349.8995   264.5352   1    0  0 
52590.895137  12.00396    6.0413  179.5884   57.3552   349.4934   264.8582   1    0  0 
52590.995801  12.00401    6.0417  179.5879   57.3556   349.9658   264.5916   1    0  0 
52591.096464  12.00380    6.0408  179.5926   57.3546   349.7280   264.6531   1    0  0 
52591.197127  12.00380    6.0409  179.5931   57.3547   349.9071   264.7466   1    0  0 
52591.297791  12.00400    6.0408  179.5890   57.3547   350.1895   265.2820   0    0  0 
52591.398454  12.00404    6.0409  179.5886   57.3548   284.0747   209.6232   0    0  0 
52591.499117  12.00414    6.0409  179.5924   57.3547   284.2355   209.6347   0    0  0 
52591.599781  12.00419    6.0409  179.5929   57.3548   283.7722   209.2809   0    0  0 
52591.700444  12.00400    6.0413  179.5884   57.3551   284.0939   209.5697   0    0  0 
52591.801107  12.00400    6.0414  179.5878   57.3552   284.2027   209.7101   0    0  0 
52591.901770  12.00400    6.0404  179.5952   57.3543   284.2052   209.5393   0    0  0 
52592.002434  12.00400    6.0403  179.5962   57.3542   284.0030   209.4566   0    0  0 
52592.103097  12.00420    6.0411  179.5900   57.3550   283.9345   209.5676   0    0  0 
52592.203760  12.00424    6.0412  179.5896   57.3551   284.1242   209.4812   0    0  0 
52592.304424  12.00433    6.0393  179.5910   57.3532   284.1424   209.8629   0    0  0 
52592.405087  12.00438    6.0390  179.5910   57.3529   284.1037   209.6575   0    0  0 
52592.505750  12.00420    6.0410  179.5910   57.3549   284.2917   209.7345   0    0  0 
52592.606414  12.00420    6.0412  179.5910   57.3550   284.0343   209.6507   0    0  0 
52592.707077  12.00442    6.0398  179.5910   57.3536   283.8789   209.5337   0    0  0 
52592.807740  12.00447    6.0395  179.5910   57.3534   284.3214   209.3704   0    0  0 
52592.908403  12.00430    6.0402  179.5910   57.3541   284.0944   209.4506   0    0  0 
52593.009067  12.00430    6.0402  179.5910   57.3541   284.0381   209.3155   0    0  0 
52593.109730  12.00450    6.0410  179.5910   57.3549   284.0037   209.5281   0    0  0 
52593.210393  12.00454    6.0412  179.5910   57.3551   284.2423   209.4620   0    0  0 
52593.311057  12.00463    6.0409  179.5910   57.3547   283.9468   209.5596   0    0  0 
52593.411720  12.00468    6.0409  179.5910   57.3548   284.3365   209.6528   0    0  0 
52593.512383  12.00450    6.0402  179.5910   57.3540   283.9582   209.5672   0    0  0 
52593.613047  12.00450    6.0400  179.5910   57.3539   283.8342   209.4981   0    0  0 
52593.713710  12.00472    6.0409  179.5910   57.3547   283.7275   209.6858   0    0  0 
52593.814373  12.00478    6.0410  179.5910   57.3549   283.8006   209.8659   0    0  0 
52593.915037  12.00460    6.0406  179.5910   57.3545   283.9267   209.5880   0    0  0 
52594.015700  12.00460    6.0406  179.5910   57.3545   284.2678   209.5983   0    0  0 
52594.116363  12.00478    6.0403  179.5928   57.3541   283.9994   209.3591   0    0  0 
52594.217026  12.00482    6.0402  179.5932   57.3541   284.1496   209.4040   0    0  0 
52594.317690  12.00486    6.0401  179.5936   57.3540   284.3053   209.3469   0    0  0 
52594.418353  12.00497    6.0410  179.5893   57.3548   284.0751   209.4661   0    0  0 
52594.519016  12.00480    6.0395  179.5932   57.3534   284.3833   209.5992   0    0  0 
52594.619680  12.00480    6.0393  179.5937   57.3531   283.9347   209.4804   0    0  0 
52594.720343  12.00480    6.0390  179.5943   57.3529   283.9018   209.6698   0    0  0 
52594.821006  12.00508    6.0404  179.5892   57.3543   283.9780   209.6391   0    0  0 
52594.921670  12.00490    6.0402  179.5910   57.3541   284.1043   209.7938   0    0  0 
52595.022333  12.00490    6.0402  179.5910   57.3541   283.8683   209.5278   0    0  0 
52595.122996  12.00490    6.0402  179.5910   57.3541   283.9820   209.7518   0    0  0 
52595.223659  12.00513    6.0402  179.5910   57.3541   283.5873   210.0281   0    0  0 
52595.324323  12.00500    6.0407  179.5910   57.3545   283.7616   209.8070   0    0  0 
52595.424986  12.00500    6.0408  179.5910   57.3546   283.5837   209.8258   0    0  0 
52595.525649  12.00500    6.0409  179.5910   57.3547   283.6507   210.0686   0    0  0 
